subject,type,condition,goal,block,block_num,block_instr_text,trial_num,stim_0,stim_0_value,stim_1,stim_1_value,position_changed,stim_left,stim_right,stim_left_name,stim_right_name,stim_left_name_feedback,stim_right_name_feedback,optimal_stim,optimal_choice,practice_round.thisRepN,practice_round.thisTrialN,practice_round.thisN,practice_round.thisIndex,trials.thisRepN,trials.thisTrialN,trials.thisN,trials.thisIndex,thisRow.t,notes,intro.started,key_resp_1.started,intro.stopped,instr1.started,instr1.stopped,instr2.started,key_resp_4.started,instr2.stopped,instr3.started,instr3.stopped,prac_instr.started,prac_instr.stopped,BlockInstruct.started,BlockInstr_disp.started,BlockInstruct.stopped,fixation.started,iti.started,fixation.stopped,stimuli.started,left.started,right.started,key_resp.started,stimuli.stopped,key_resp.keys,key_resp.corr,key_resp.rt,key_resp.duration,chosen_stim_name,chosen_stim_0,chosen_stim_1,true_accuracy,stimuli_feedback.started,left_feedback.started,right_feedback.started,stimuli_feedback.stopped,iti.stopped,feedback.started,cumulativePts_self,outcomeDescr,outcome,feedback_text.started,feedback.stopped,feedback_text.stopped,instr4.started,instr4.stopped,exp_instr.started,exp_instr.stopped,ender.started,key_resp_6.started,ender.stopped,participant,date,expName,psychopyVersion,frameRate,expStart,
3,0,self,win,self_win,1,Play to WIN points,0,stimuli/slot2_up.jpg,0,stimuli/slot1_up.jpg,1,0,2,1,stimuli/slot2_up.jpg,stimuli/slot1_up.jpg,stimuli/slot2_down.jpg,stimuli/slot1_down.jpg,stimuli/slot1_up.jpg,right,,,,,0,0,0,0,82.79804980000335,,0.001815200004784856,0.035020200004510116,2.436919300002046,2.436939400002302,3.077052700005879,3.0770687000040198,3.079394400003366,3.807546200005163,3.807564900002035,4.635580600006506,4.635596500003885,5.245887100005348,82.79489370000374,82.79804980000335,87.76726460000646,89.27676960000099,89.27818500000285,89.77481080000143,88.26531580000301,88.30635130000155,88.30635130000155,88.30635130000155,88.77553150000313,right,1,0.46824629999900935,None,stimuli/slot1_up.jpg,0,1,0,88.77616180000041,88.80387090000295,88.80387090000295,89.27675780000573,89.77675750000344,89.77482299999974,1700,self win,1,89.77675750000344,91.2738329000058,91.27581470000587,79.49785350000457,82.24927430000389,82.24929720000364,82.76585020000493,,,,03,2024-06-13_02h43.16.772,two-armed-bandit,2023.2.3,352.3794421928431,2024-06-13 02h43.34.572238 -0400,
3,0,self,win,self_win,1,Play to WIN points,1,stimuli/slot2_up.jpg,1,stimuli/slot1_up.jpg,0,1,1,2,stimuli/slot1_up.jpg,stimuli/slot2_up.jpg,stimuli/slot1_down.jpg,stimuli/slot2_down.jpg,stimuli/slot2_up.jpg,right,,,,,0,1,1,1,91.27581470000587,,,,,,,,,,,,,,91.2741365000038,91.27581470000587,91.27443590000621,92.52803649999987,92.52946890000021,93.02626760000567,91.77254850000463,91.80391790000431,91.80391790000431,91.80391790000431,92.02599410000403,right,1,0.22115209999901708,None,stimuli/slot2_up.jpg,1,0,1,92.0263555000056,92.05502680000063,92.05502680000063,92.52802560000418,93.02822030000243,93.02627990000474,1800,self win,1,93.02822030000243,94.525678900005,94.52806760000385,,,,,,,,03,2024-06-13_02h43.16.772,two-armed-bandit,2023.2.3,352.3794421928431,2024-06-13 02h43.34.572238 -0400,
3,0,self,win,self_win,1,Play to WIN points,2,stimuli/slot2_up.jpg,0,stimuli/slot1_up.jpg,1,0,2,1,stimuli/slot2_up.jpg,stimuli/slot1_up.jpg,stimuli/slot2_down.jpg,stimuli/slot1_down.jpg,stimuli/slot1_up.jpg,right,,,,,0,2,2,2,94.52806760000385,,,,,,,,,,,,,,94.52609540000412,94.52806760000385,94.52652410000155,95.87777210000058,95.87910220000049,96.3758353000012,95.02392510000209,95.05083730000479,95.05083730000479,95.05083730000479,95.37603280000621,right,1,0.32381290000193985,None,stimuli/slot1_up.jpg,0,1,0,95.37643500000559,95.40021820000402,95.40021820000402,95.87776080000185,96.37765639999998,96.3758483000056,1900,self win,1,96.37765639999998,97.87485320000269,97.87685380000039,,,,,,,,03,2024-06-13_02h43.16.772,two-armed-bandit,2023.2.3,352.3794421928431,2024-06-13 02h43.34.572238 -0400,
3,0,self,win,self_win,1,Play to WIN points,3,stimuli/slot2_up.jpg,0,stimuli/slot1_up.jpg,1,1,1,2,stimuli/slot1_up.jpg,stimuli/slot2_up.jpg,stimuli/slot1_down.jpg,stimuli/slot2_down.jpg,stimuli/slot1_up.jpg,left,,,,,0,3,3,3,97.87685380000039,,,,,,,,,,,,,,97.87515300000086,97.87685380000039,97.8754923000015,100.53755939999974,100.53898640000261,101.03612560000329,98.37390969999979,98.39724380000553,98.39724380000553,98.39724380000553,100.03679600000032,right,0,1.6383748999942327,None,stimuli/slot2_up.jpg,1,0,1,100.03724930000317,100.06462410000677,100.06462410000677,100.53754740000295,101.04109510000126,101.03613900000346,1900,self avoid win,0,101.04109510000126,102.5375467000049,,,,,,,,,03,2024-06-13_02h43.16.772,two-armed-bandit,2023.2.3,352.3794421928431,2024-06-13 02h43.34.572238 -0400,
3,0,self,win,self_win,1,Play to WIN points,4,stimuli/slot2_up.jpg,1,stimuli/slot1_up.jpg,0,1,1,2,stimuli/slot1_up.jpg,stimuli/slot2_up.jpg,stimuli/slot1_down.jpg,stimuli/slot2_down.jpg,stimuli/slot2_up.jpg,right,,,,,0,4,4,4,102.53967180000473,,,,,,,,,,,,,,102.53785770000104,102.53967180000473,102.53822850000142,103.84678270000586,103.84810950000247,104.34432550000201,103.03682920000574,103.06233510000311,103.06233510000311,103.06233510000311,103.3461782000013,right,1,0.28237480000098003,None,stimuli/slot2_up.jpg,1,0,1,103.34660160000203,103.36945850000484,103.36945850000484,103.84676880000188,104.34982110000419,104.34434140000667,2000,self win,1,104.34982110000419,105.8466866000017,,,,,,,,,03,2024-06-13_02h43.16.772,two-armed-bandit,2023.2.3,352.3794421928431,2024-06-13 02h43.34.572238 -0400,
3,0,self,win,self_win,1,Play to WIN points,5,stimuli/slot2_up.jpg,1,stimuli/slot1_up.jpg,0,0,2,1,stimuli/slot2_up.jpg,stimuli/slot1_up.jpg,stimuli/slot2_down.jpg,stimuli/slot1_down.jpg,stimuli/slot2_up.jpg,left,,,,,0,5,5,5,105.84894890000578,,,,,,,,,,,,,,105.8470324000009,105.84894890000578,105.84741940000094,107.14642090000416,107.14786480000475,107.64384110000537,106.34591280000313,106.36964620000072,106.36964620000072,106.36964620000072,106.64553030000388,right,0,0.27484109999932116,None,stimuli/slot1_up.jpg,0,1,0,106.64594130000478,106.67194290000043,106.67194290000043,107.14640840000357,107.64892430000327,107.6438563000047,2000,self avoid win,0,107.64892430000327,109.14600559999963,,,,,,,,,03,2024-06-13_02h43.16.772,two-armed-bandit,2023.2.3,352.3794421928431,2024-06-13 02h43.34.572238 -0400,
3,0,self,win,self_win,1,Play to WIN points,6,stimuli/slot2_up.jpg,1,stimuli/slot1_up.jpg,0,1,1,2,stimuli/slot1_up.jpg,stimuli/slot2_up.jpg,stimuli/slot1_down.jpg,stimuli/slot2_down.jpg,stimuli/slot2_up.jpg,right,,,,,0,6,6,6,109.14877340000385,,,,,,,,,,,,,,109.14638520000153,109.14877340000385,109.14693900000566,110.70740050000313,110.70882960000017,111.20484990000114,109.64559980000195,109.66979100000026,109.66979100000026,109.66979100000026,110.20602160000271,right,1,0.5349497999995947,None,stimuli/slot2_up.jpg,1,0,1,110.20642860000225,110.24359700000059,110.24359700000059,110.70738840000558,111.21077230000083,111.20486430000165,2100,self win,1,111.21077230000083,112.70655290000286,,,,,,,,,03,2024-06-13_02h43.16.772,two-armed-bandit,2023.2.3,352.3794421928431,2024-06-13 02h43.34.572238 -0400,
3,0,self,win,self_win,1,Play to WIN points,7,stimuli/slot2_up.jpg,1,stimuli/slot1_up.jpg,0,0,2,1,stimuli/slot2_up.jpg,stimuli/slot1_up.jpg,stimuli/slot2_down.jpg,stimuli/slot1_down.jpg,stimuli/slot2_up.jpg,left,,,,,0,7,7,7,112.70851690000563,,,,,,,,,,,,,,112.70682620000298,112.70851690000563,112.7071769000031,114.14051520000066,114.14228460000595,114.63867500000197,113.20460730000195,113.22768650000216,113.22768650000216,113.22768650000216,113.638225900002,right,0,0.40783460000238847,None,stimuli/slot1_up.jpg,0,1,0,113.63861130000441,113.66106700000091,113.66106700000091,114.14049220000015,114.64333030000125,114.6386885000029,2100,self avoid win,0,114.64333030000125,116.14009610000357,,,,,,,,,03,2024-06-13_02h43.16.772,two-armed-bandit,2023.2.3,352.3794421928431,2024-06-13 02h43.34.572238 -0400,
3,0,self,win,self_win,1,Play to WIN points,8,stimuli/slot2_up.jpg,1,stimuli/slot1_up.jpg,0,0,2,1,stimuli/slot2_up.jpg,stimuli/slot1_up.jpg,stimuli/slot2_down.jpg,stimuli/slot1_down.jpg,stimuli/slot2_up.jpg,left,,,,,0,8,8,8,116.14245080000546,,,,,,,,,,,,,,116.14042480000353,116.14245080000546,116.14079330000095,117.62801760000002,117.62955260000308,118.12637130000076,116.63917600000423,116.66774360000272,116.66774360000272,116.66774360000272,117.12740900000063,right,0,0.4563916000042809,None,stimuli/slot1_up.jpg,0,1,0,117.12793050000619,117.1581920000026,117.1581920000026,117.6280046000029,118.12827749999997,118.1263856000005,2100,self avoid win,0,118.12827749999997,119.62553990000015,119.62782820000575,,,,,,,,03,2024-06-13_02h43.16.772,two-armed-bandit,2023.2.3,352.3794421928431,2024-06-13 02h43.34.572238 -0400,
3,0,self,win,self_win,1,Play to WIN points,9,stimuli/slot2_up.jpg,1,stimuli/slot1_up.jpg,0,0,2,1,stimuli/slot2_up.jpg,stimuli/slot1_up.jpg,stimuli/slot2_down.jpg,stimuli/slot1_down.jpg,stimuli/slot2_up.jpg,left,,,,,0,9,9,9,119.62782820000575,,,,,,,,,,,,,,119.62590700000146,119.62782820000575,119.62626230000023,121.10645810000278,121.10787660000642,121.60494889999973,120.12496440000541,120.15087100000528,120.15087100000528,120.15087100000528,120.60515660000237,right,0,0.45335209999757353,None,stimuli/slot1_up.jpg,0,1,0,120.60552820000157,120.62852480000583,120.62852480000583,121.10644680000405,121.6070153000037,121.60496320000675,2100,self avoid win,0,121.6070153000037,123.10433140000532,123.10679830000299,,,,,,,,03,2024-06-13_02h43.16.772,two-armed-bandit,2023.2.3,352.3794421928431,2024-06-13 02h43.34.572238 -0400,
3,0,self,win,self_win,1,Play to WIN points,10,stimuli/slot2_up.jpg,0,stimuli/slot1_up.jpg,1,0,2,1,stimuli/slot2_up.jpg,stimuli/slot1_up.jpg,stimuli/slot2_down.jpg,stimuli/slot1_down.jpg,stimuli/slot1_up.jpg,right,,,,,0,10,10,10,123.10679830000299,,,,,,,,,,,,,,123.10471320000215,123.10679830000299,123.10511510000651,124.57803870000498,124.57966660000238,125.07635960000334,123.60355090000667,123.63014340000518,123.63014340000518,123.63014340000518,124.07755390000239,right,1,0.4458077000017511,None,stimuli/slot1_up.jpg,0,1,0,124.07796660000167,124.10447190000559,124.10447190000559,124.57802580000134,125.08136060000106,125.07637310000428,2200,self win,1,125.08136060000106,126.57842350000283,,,,,,,,,03,2024-06-13_02h43.16.772,two-armed-bandit,2023.2.3,352.3794421928431,2024-06-13 02h43.34.572238 -0400,
3,0,self,win,self_win,1,Play to WIN points,11,stimuli/slot2_up.jpg,1,stimuli/slot1_up.jpg,0,0,2,1,stimuli/slot2_up.jpg,stimuli/slot1_up.jpg,stimuli/slot2_down.jpg,stimuli/slot1_down.jpg,stimuli/slot2_up.jpg,left,,,,,0,11,11,11,126.5805857000014,,,,,,,,,,,,,,126.57874120000633,126.5805857000014,126.57911450000393,127.91808230000606,127.91945400000259,128.4157004000008,127.07696820000274,127.11171120000654,127.11171120000654,127.11171120000654,127.41682360000414,right,0,0.30280559999664547,None,stimuli/slot1_up.jpg,0,1,0,127.41738460000488,127.44903020000493,127.44903020000493,127.91807120000158,128.420529300005,128.41571430000477,2200,self avoid win,0,128.420529300005,129.9167277000015,129.91944140000123,,,,,,,,03,2024-06-13_02h43.16.772,two-armed-bandit,2023.2.3,352.3794421928431,2024-06-13 02h43.34.572238 -0400,
3,0,self,win,self_win,1,Play to WIN points,12,stimuli/slot2_up.jpg,1,stimuli/slot1_up.jpg,0,1,1,2,stimuli/slot1_up.jpg,stimuli/slot2_up.jpg,stimuli/slot1_down.jpg,stimuli/slot2_down.jpg,stimuli/slot2_up.jpg,right,,,,,0,12,12,12,129.91944140000123,,,,,,,,,,,,,,129.9171065000046,129.91944140000123,129.91756950000126,131.24737870000536,131.24886010000046,131.7451132999995,130.4167002000031,130.44337870000163,130.44337870000163,130.44337870000163,130.74684060000436,right,1,0.3019778999951086,None,stimuli/slot2_up.jpg,1,0,1,130.74725380000018,130.7749135000049,130.7749135000049,131.24736740000662,131.74958860000334,131.74512490000052,2300,self win,1,131.74958860000334,133.24648010000237,133.24882070000604,,,,,,,,03,2024-06-13_02h43.16.772,two-armed-bandit,2023.2.3,352.3794421928431,2024-06-13 02h43.34.572238 -0400,
3,0,self,win,self_win,1,Play to WIN points,13,stimuli/slot2_up.jpg,1,stimuli/slot1_up.jpg,0,0,2,1,stimuli/slot2_up.jpg,stimuli/slot1_up.jpg,stimuli/slot2_down.jpg,stimuli/slot1_down.jpg,stimuli/slot2_up.jpg,left,,,,,0,13,13,13,133.24882070000604,,,,,,,,,,,,,,133.24684760000673,133.24882070000604,133.24723550000635,134.79831100000592,134.79978770000162,135.29570150000654,133.74467949999962,133.76786850000644,133.76786850000644,133.76786850000644,134.29741380000632,right,0,0.5268474000040442,None,stimuli/slot1_up.jpg,0,1,0,134.29781190000358,134.3209730000017,134.3209730000017,134.79829910000262,135.3011739000067,135.29571530000248,2300,self avoid win,0,135.3011739000067,136.79792610000004,,,,,,,,,03,2024-06-13_02h43.16.772,two-armed-bandit,2023.2.3,352.3794421928431,2024-06-13 02h43.34.572238 -0400,
3,0,self,win,self_win,1,Play to WIN points,14,stimuli/slot2_up.jpg,1,stimuli/slot1_up.jpg,0,1,1,2,stimuli/slot1_up.jpg,stimuli/slot2_up.jpg,stimuli/slot1_down.jpg,stimuli/slot2_down.jpg,stimuli/slot2_up.jpg,right,,,,,0,14,14,14,136.79986310000095,,,,,,,,,,,,,,136.7982098000066,136.79986310000095,136.79857320000156,138.20880110000144,138.2102523000067,138.7075588000007,137.29672030000074,137.31749160000618,137.31749160000618,137.31749160000618,137.70722150000074,right,1,0.3872496999974828,None,stimuli/slot2_up.jpg,1,0,1,137.70765650000249,137.73490360000142,137.73490360000142,138.20878880000237,138.71267570000055,138.70757280000544,2400,self win,1,138.71267570000055,140.2076887000003,,,,,,,,,03,2024-06-13_02h43.16.772,two-armed-bandit,2023.2.3,352.3794421928431,2024-06-13 02h43.34.572238 -0400,
3,0,self,win,self_win,1,Play to WIN points,15,stimuli/slot2_up.jpg,1,stimuli/slot1_up.jpg,0,1,1,2,stimuli/slot1_up.jpg,stimuli/slot2_up.jpg,stimuli/slot1_down.jpg,stimuli/slot2_down.jpg,stimuli/slot2_up.jpg,right,,,,,0,15,15,15,140.209821000004,,,,,,,,,,,,,,140.20801420000498,140.209821000004,140.2083641000063,141.83806030000414,141.83942500000558,142.3362949000002,140.70667479999975,140.72809340000094,140.72809340000094,140.72809340000094,141.33661440000287,right,1,0.6071254999988014,None,stimuli/slot2_up.jpg,1,0,1,141.33704100000614,141.3643882000033,141.3643882000033,141.83804950000194,142.33822380000493,142.33630720000656,2500,self win,1,142.33822380000493,143.8351371000026,143.83748010000272,,,,,,,,03,2024-06-13_02h43.16.772,two-armed-bandit,2023.2.3,352.3794421928431,2024-06-13 02h43.34.572238 -0400,
3,0,self,win,self_win,1,Play to WIN points,16,stimuli/slot2_up.jpg,1,stimuli/slot1_up.jpg,0,0,2,1,stimuli/slot2_up.jpg,stimuli/slot1_up.jpg,stimuli/slot2_down.jpg,stimuli/slot1_down.jpg,stimuli/slot2_up.jpg,left,,,,,0,16,16,16,143.83748010000272,,,,,,,,,,,,,,143.8355051000035,143.83748010000272,143.83589940000093,145.32795470000565,145.32953410000482,145.8258047000054,144.33402990000468,144.3596278000041,144.3596278000041,144.3596278000041,144.82715160000225,right,0,0.46624100000190083,None,stimuli/slot1_up.jpg,0,1,0,144.82759970000188,144.85481150000123,144.85481150000123,145.32794200000353,145.8309500000032,145.82582070000353,2500,self avoid win,0,145.8309500000032,147.32832900000358,,,,,,,,,03,2024-06-13_02h43.16.772,two-armed-bandit,2023.2.3,352.3794421928431,2024-06-13 02h43.34.572238 -0400,
3,0,self,win,self_win,1,Play to WIN points,17,stimuli/slot2_up.jpg,0,stimuli/slot1_up.jpg,1,0,2,1,stimuli/slot2_up.jpg,stimuli/slot1_up.jpg,stimuli/slot2_down.jpg,stimuli/slot1_down.jpg,stimuli/slot1_up.jpg,right,,,,,0,17,17,17,147.33100960000593,,,,,,,,,,,,,,147.3286991000059,147.33100960000593,147.32920469999954,148.744360100005,148.74622570000065,149.2431269000008,147.82813610000449,147.8567619000023,147.8567619000023,147.8567619000023,148.2430588000061,right,1,0.35763330000190763,None,stimuli/slot1_up.jpg,0,1,0,148.24413440000353,148.2955157000033,148.2955157000033,148.74434770000516,149.24888860000647,149.2431429000062,2600,self win,1,149.24888860000647,150.74446460000036,,,,,,,,,03,2024-06-13_02h43.16.772,two-armed-bandit,2023.2.3,352.3794421928431,2024-06-13 02h43.34.572238 -0400,
3,0,self,win,self_win,1,Play to WIN points,18,stimuli/slot2_up.jpg,1,stimuli/slot1_up.jpg,0,1,1,2,stimuli/slot1_up.jpg,stimuli/slot2_up.jpg,stimuli/slot1_down.jpg,stimuli/slot2_down.jpg,stimuli/slot2_up.jpg,right,,,,,0,18,18,18,150.74674070000037,,,,,,,,,,,,,,150.74481350000133,150.74674070000037,150.74517650000053,152.006618600004,152.00819610000326,152.50430170000618,151.2433791000003,151.27140380000492,151.27140380000492,151.27140380000492,151.50542510000378,right,1,0.2331421999988379,None,stimuli/slot2_up.jpg,1,0,1,151.50580820000323,151.52992340000492,151.52992340000492,152.0066055999996,152.50635909999983,152.50431490000483,2700,self win,1,152.50635909999983,154.00422330000583,154.00631740000244,,,,,,,,03,2024-06-13_02h43.16.772,two-armed-bandit,2023.2.3,352.3794421928431,2024-06-13 02h43.34.572238 -0400,
3,0,self,win,self_win,1,Play to WIN points,19,stimuli/slot2_up.jpg,1,stimuli/slot1_up.jpg,0,1,1,2,stimuli/slot1_up.jpg,stimuli/slot2_up.jpg,stimuli/slot1_down.jpg,stimuli/slot2_down.jpg,stimuli/slot2_up.jpg,right,,,,,0,19,19,19,154.00631740000244,,,,,,,,,,,,,,154.00454680000257,154.00631740000244,154.00490520000312,155.259252200005,155.26081980000163,155.75783390000288,154.50264470000548,154.52900610000506,154.52900610000506,154.52900610000506,154.75735530000384,right,1,0.225198599997384,None,stimuli/slot2_up.jpg,1,0,1,154.7580492000052,154.78269759999966,154.78269759999966,155.25924040000245,155.75996480000322,155.75784700000077,2800,self win,1,155.75996480000322,157.25719660000323,157.259716200002,,,,,,,,03,2024-06-13_02h43.16.772,two-armed-bandit,2023.2.3,352.3794421928431,2024-06-13 02h43.34.572238 -0400,
3,0,self,win,self_win,1,Play to WIN points,20,stimuli/slot2_up.jpg,1,stimuli/slot1_up.jpg,0,1,1,2,stimuli/slot1_up.jpg,stimuli/slot2_up.jpg,stimuli/slot1_down.jpg,stimuli/slot2_down.jpg,stimuli/slot2_up.jpg,right,,,,,0,20,20,20,157.259716200002,,,,,,,,,,,,,,157.25756930000352,157.259716200002,157.25799689999985,158.73631510000268,158.7376371000064,159.23444800000289,157.7565942000001,157.78211320000264,157.78211320000264,157.78211320000264,158.2353871000014,right,1,0.452022899997246,None,stimuli/slot2_up.jpg,1,0,1,158.23576660000253,158.26030170000013,158.26030170000013,158.7363037000032,159.2364138000048,159.23446720000356,2900,self win,1,159.2364138000048,160.73342350000166,160.73539830000664,,,,,,,,03,2024-06-13_02h43.16.772,two-armed-bandit,2023.2.3,352.3794421928431,2024-06-13 02h43.34.572238 -0400,
3,0,self,win,self_win,1,Play to WIN points,21,stimuli/slot2_up.jpg,0,stimuli/slot1_up.jpg,1,0,2,1,stimuli/slot2_up.jpg,stimuli/slot1_up.jpg,stimuli/slot2_down.jpg,stimuli/slot1_down.jpg,stimuli/slot1_up.jpg,right,,,,,0,21,21,21,160.73539830000664,,,,,,,,,,,,,,160.73370250000153,160.73539830000664,160.73405480000656,162.17932790000486,162.18087230000674,162.6774065999998,161.23220020000008,161.25645510000322,161.25645510000322,161.25645510000322,161.67732770000293,right,1,0.41945010000199545,None,stimuli/slot1_up.jpg,0,1,0,161.67770759999985,161.70107620000636,161.70107620000636,162.17931500000122,162.67959610000253,162.67742540000472,3000,self win,1,162.67959610000253,164.1772232000003,164.17936580000242,,,,,,,,03,2024-06-13_02h43.16.772,two-armed-bandit,2023.2.3,352.3794421928431,2024-06-13 02h43.34.572238 -0400,
3,0,self,win,self_win,1,Play to WIN points,22,stimuli/slot2_up.jpg,0,stimuli/slot1_up.jpg,1,0,2,1,stimuli/slot2_up.jpg,stimuli/slot1_up.jpg,stimuli/slot2_down.jpg,stimuli/slot1_down.jpg,stimuli/slot1_up.jpg,right,,,,,0,22,22,22,164.17936580000242,,,,,,,,,,,,,,164.1775412000061,164.17936580000242,164.17789260000427,165.69974730000104,165.7012457000019,166.19816410000203,164.6759067000021,164.70087920000515,164.70087920000515,164.70087920000515,165.19718580000335,right,1,0.49394650000613183,None,stimuli/slot1_up.jpg,0,1,0,165.1979849000054,165.25149720000627,165.25149720000627,165.6997346000062,164.70087920000515,166.1981769000049,3100,self win,1,166.20037280000543,167.69748059999984,167.69969640000636,,,,,,,,03,2024-06-13_02h43.16.772,two-armed-bandit,2023.2.3,352.3794421928431,2024-06-13 02h43.34.572238 -0400,
3,0,self,win,self_win,1,Play to WIN points,23,stimuli/slot2_up.jpg,1,stimuli/slot1_up.jpg,0,0,2,1,stimuli/slot2_up.jpg,stimuli/slot1_up.jpg,stimuli/slot2_down.jpg,stimuli/slot1_down.jpg,stimuli/slot2_up.jpg,left,,,,,0,23,23,23,167.69969640000636,,,,,,,,,,,,,,167.69781010000588,167.69969640000636,167.6981528000033,169.05801810000412,169.0592661000046,169.5556057000067,168.19656260000193,168.22239830000035,168.22239830000035,168.22239830000035,168.55711000000156,right,0,0.33345209999970393,None,stimuli/slot1_up.jpg,0,1,0,168.5574787000005,168.58023590000084,168.58023590000084,169.05800720000116,169.56035640000482,169.55561890000536,3100,self avoid win,0,169.56035640000482,171.05694700000458,171.0591790000035,,,,,,,,03,2024-06-13_02h43.16.772,two-armed-bandit,2023.2.3,352.3794421928431,2024-06-13 02h43.34.572238 -0400,
3,0,self,win,self_win,1,Play to WIN points,24,stimuli/slot2_up.jpg,1,stimuli/slot1_up.jpg,0,1,1,2,stimuli/slot1_up.jpg,stimuli/slot2_up.jpg,stimuli/slot1_down.jpg,stimuli/slot2_down.jpg,stimuli/slot2_up.jpg,right,,,,,0,24,24,24,171.0591790000035,,,,,,,,,,,,,,171.05729630000133,171.0591790000035,171.057676000004,172.42711650000274,172.42848700000468,172.9244347000058,171.5553929000016,171.57813390000229,171.57813390000229,171.57813390000229,171.92582870000479,right,1,0.34679780000442406,None,stimuli/slot2_up.jpg,1,0,1,171.9261889000045,171.947593900004,171.947593900004,172.427105200004,172.9295179000037,172.9244478000037,3200,self win,1,172.9295179000037,174.42548620000161,174.4278348000007,,,,,,,,03,2024-06-13_02h43.16.772,two-armed-bandit,2023.2.3,352.3794421928431,2024-06-13 02h43.34.572238 -0400,
3,0,self,win,self_win,1,Play to WIN points,25,stimuli/slot2_up.jpg,0,stimuli/slot1_up.jpg,1,0,2,1,stimuli/slot2_up.jpg,stimuli/slot1_up.jpg,stimuli/slot2_down.jpg,stimuli/slot1_down.jpg,stimuli/slot1_up.jpg,right,,,,,0,25,25,25,174.4278348000007,,,,,,,,,,,,,,174.42587180000555,174.4278348000007,174.4262488000022,175.72717710000143,175.7285486000037,176.22487810000166,174.92470830000093,174.95059510000283,174.95059510000283,174.95059510000283,175.2262148000009,left,0,0.2739787000027718,None,stimuli/slot2_up.jpg,1,0,1,175.22660040000483,175.24951370000053,175.24951370000053,175.72716590000346,176.2295146000033,176.22488960000192,3200,self avoid win,0,176.2295146000033,177.72599250000349,177.7284335000004,,,,,,,,03,2024-06-13_02h43.16.772,two-armed-bandit,2023.2.3,352.3794421928431,2024-06-13 02h43.34.572238 -0400,
3,0,self,win,self_win,1,Play to WIN points,26,stimuli/slot2_up.jpg,0,stimuli/slot1_up.jpg,1,0,2,1,stimuli/slot2_up.jpg,stimuli/slot1_up.jpg,stimuli/slot2_down.jpg,stimuli/slot1_down.jpg,stimuli/slot1_up.jpg,right,,,,,0,26,26,26,177.7284335000004,,,,,,,,,,,,,,177.7263510000048,177.7284335000004,177.72669780000433,179.2370523999998,179.23842250000598,179.73462149999978,178.22462170000654,178.24595310000586,178.24595310000586,178.24595310000586,178.73603840000578,right,1,0.48863300000084564,None,stimuli/slot1_up.jpg,0,1,0,178.73648340000364,178.76402890000463,178.76402890000463,179.2370405000038,179.7395564000035,179.73464180000155,3300,self win,1,179.7395564000035,181.23672900000383,,,,,,,,,03,2024-06-13_02h43.16.772,two-armed-bandit,2023.2.3,352.3794421928431,2024-06-13 02h43.34.572238 -0400,
3,0,self,win,self_win,1,Play to WIN points,27,stimuli/slot2_up.jpg,1,stimuli/slot1_up.jpg,0,1,1,2,stimuli/slot1_up.jpg,stimuli/slot2_up.jpg,stimuli/slot1_down.jpg,stimuli/slot2_down.jpg,stimuli/slot2_up.jpg,right,,,,,0,27,27,27,181.23943600000348,,,,,,,,,,,,,,181.23714230000041,181.23943600000348,181.23764840000513,182.60837820000597,182.60985939999955,183.10621890000039,181.73571470000024,181.76576370000112,181.76576370000112,181.76576370000112,182.10756480000418,right,1,0.33897470000374597,None,stimuli/slot2_up.jpg,1,0,1,182.10796330000449,182.13143400000263,182.13143400000263,182.60836550000386,183.10842750000302,183.10623450000276,3400,self win,1,183.10842750000302,184.60512279999966,184.60731170000508,,,,,,,,03,2024-06-13_02h43.16.772,two-armed-bandit,2023.2.3,352.3794421928431,2024-06-13 02h43.34.572238 -0400,
3,0,self,win,self_win,1,Play to WIN points,28,stimuli/slot2_up.jpg,1,stimuli/slot1_up.jpg,0,1,1,2,stimuli/slot1_up.jpg,stimuli/slot2_up.jpg,stimuli/slot1_down.jpg,stimuli/slot2_down.jpg,stimuli/slot2_up.jpg,right,,,,,0,28,28,28,184.60731170000508,,,,,,,,,,,,,,184.60544240000308,184.60731170000508,184.60581850000017,186.01813530000072,186.01966979999997,186.52740630000335,185.10377580000204,185.12965110000368,185.12965110000368,185.12965110000368,185.51701990000583,right,1,0.38593740000214893,None,stimuli/slot2_up.jpg,1,0,1,185.5174152000036,185.54034300000058,185.54034300000058,186.01812250000512,185.12965110000368,186.52743480000208,3500,self win,1,186.53206240000145,188.01765600000363,,,,,,,,,03,2024-06-13_02h43.16.772,two-armed-bandit,2023.2.3,352.3794421928431,2024-06-13 02h43.34.572238 -0400,
3,0,self,win,self_win,1,Play to WIN points,29,stimuli/slot2_up.jpg,1,stimuli/slot1_up.jpg,0,1,1,2,stimuli/slot1_up.jpg,stimuli/slot2_up.jpg,stimuli/slot1_down.jpg,stimuli/slot2_down.jpg,stimuli/slot2_up.jpg,right,,,,,0,29,29,29,188.02019470000232,,,,,,,,,,,,,,188.0180343000029,188.02019470000232,188.01847910000652,189.30984940000053,189.3114654000019,189.80763170000137,188.51690720000624,188.5425910000049,188.5425910000049,188.5425910000049,188.80825760000153,right,1,0.26249539999844274,None,stimuli/slot2_up.jpg,1,0,1,188.80867969999963,188.83437630000117,188.83437630000117,189.30981660000543,189.80949760000658,189.8076449,3600,self win,1,189.80949760000658,191.3067502000049,191.30913169999985,,,,,,,,03,2024-06-13_02h43.16.772,two-armed-bandit,2023.2.3,352.3794421928431,2024-06-13 02h43.34.572238 -0400,
3,0,self,win,self_win,1,Play to WIN points,30,stimuli/slot2_up.jpg,1,stimuli/slot1_up.jpg,0,0,2,1,stimuli/slot2_up.jpg,stimuli/slot1_up.jpg,stimuli/slot2_down.jpg,stimuli/slot1_down.jpg,stimuli/slot2_up.jpg,left,,,,,0,30,30,30,191.30913169999985,,,,,,,,,,,,,,191.30709560000105,191.30913169999985,191.30745610000304,192.54800480000267,192.54942190000293,193.04593790000217,191.80599130000337,191.83299100000295,191.83299100000295,191.83299100000295,192.04659750000428,left,1,0.21249230000103125,None,stimuli/slot2_up.jpg,1,0,1,192.046986500005,192.07341760000418,192.07341760000418,192.54799320000166,193.04821990000346,193.04595370000607,3700,self win,1,193.04821990000346,194.54427990000113,194.5466643000036,,,,,,,,03,2024-06-13_02h43.16.772,two-armed-bandit,2023.2.3,352.3794421928431,2024-06-13 02h43.34.572238 -0400,
3,0,self,win,self_win,1,Play to WIN points,31,stimuli/slot2_up.jpg,1,stimuli/slot1_up.jpg,0,1,1,2,stimuli/slot1_up.jpg,stimuli/slot2_up.jpg,stimuli/slot1_down.jpg,stimuli/slot2_down.jpg,stimuli/slot2_up.jpg,right,,,,,0,31,31,31,194.5466643000036,,,,,,,,,,,,,,194.54462320000312,194.5466643000036,194.54503070000646,195.84649100000388,195.8481260000044,196.3452782000022,195.0436136000062,195.06573760000174,195.06573760000174,195.06573760000174,195.34524950000196,right,1,0.2783061000009184,None,stimuli/slot2_up.jpg,1,0,1,195.34563470000285,195.37048860000505,195.37048860000505,195.84647720000066,196.3471356000009,196.34529080000357,3800,self win,1,196.3471356000009,197.84384530000534,197.84598260000348,,,,,,,,03,2024-06-13_02h43.16.772,two-armed-bandit,2023.2.3,352.3794421928431,2024-06-13 02h43.34.572238 -0400,
3,0,self,win,self_win,1,Play to WIN points,32,stimuli/slot2_up.jpg,0,stimuli/slot1_up.jpg,1,0,2,1,stimuli/slot2_up.jpg,stimuli/slot1_up.jpg,stimuli/slot2_down.jpg,stimuli/slot1_down.jpg,stimuli/slot1_up.jpg,right,,,,,0,32,32,32,197.84598260000348,,,,,,,,,,,,,,197.84415550000267,197.84598260000348,197.84450099999958,199.35787379999965,199.35939950000466,199.85543140000664,198.3418740000052,198.36706450000202,198.36706450000202,198.36706450000202,198.8566315000062,right,1,0.48833469999954104,None,stimuli/slot1_up.jpg,0,1,0,198.8570269000047,198.88053070000024,198.88053070000024,199.35786190000363,199.85736380000162,199.85544300000038,3900,self win,1,199.85736380000162,201.35408690000622,201.35637890000362,,,,,,,,03,2024-06-13_02h43.16.772,two-armed-bandit,2023.2.3,352.3794421928431,2024-06-13 02h43.34.572238 -0400,
3,0,self,win,self_win,1,Play to WIN points,33,stimuli/slot2_up.jpg,1,stimuli/slot1_up.jpg,0,1,1,2,stimuli/slot1_up.jpg,stimuli/slot2_up.jpg,stimuli/slot1_down.jpg,stimuli/slot2_down.jpg,stimuli/slot2_up.jpg,right,,,,,0,33,33,33,201.35637890000362,,,,,,,,,,,,,,201.3543959000017,201.35637890000362,201.35476620000554,202.7379951000039,202.7396258000008,203.23577579999983,201.8530294000011,201.8754515000037,201.8754515000037,201.8754515000037,202.23715930000617,right,1,0.3602089999985765,None,stimuli/slot2_up.jpg,1,0,1,202.23757450000267,202.26245349999954,202.26245349999954,202.73797390000254,203.23783240000193,203.23578950000228,4000,self win,1,203.23783240000193,204.7359815000018,204.7384369000065,,,,,,,,03,2024-06-13_02h43.16.772,two-armed-bandit,2023.2.3,352.3794421928431,2024-06-13 02h43.34.572238 -0400,
3,0,self,win,self_win,1,Play to WIN points,34,stimuli/slot2_up.jpg,1,stimuli/slot1_up.jpg,0,0,2,1,stimuli/slot2_up.jpg,stimuli/slot1_up.jpg,stimuli/slot2_down.jpg,stimuli/slot1_down.jpg,stimuli/slot2_up.jpg,left,,,,,0,34,34,34,204.7384369000065,,,,,,,,,,,,,,204.73633330000303,204.7384369000065,204.7367544000008,205.91840570000204,205.91984770000272,206.41685040000448,205.2351556000067,205.25858100000187,205.25858100000187,205.25858100000187,205.41630710000027,right,0,0.15545470000506612,None,stimuli/slot1_up.jpg,0,1,0,205.41677520000667,205.4447566000017,205.4447566000017,205.9183938999995,206.42267720000382,206.4168669999999,4000,self avoid win,0,206.42267720000382,207.91696159999992,,,,,,,,,03,2024-06-13_02h43.16.772,two-armed-bandit,2023.2.3,352.3794421928431,2024-06-13 02h43.34.572238 -0400,
3,0,self,win,self_win,1,Play to WIN points,35,stimuli/slot2_up.jpg,1,stimuli/slot1_up.jpg,0,1,1,2,stimuli/slot1_up.jpg,stimuli/slot2_up.jpg,stimuli/slot1_down.jpg,stimuli/slot2_down.jpg,stimuli/slot2_up.jpg,right,,,,,0,35,35,35,207.9190471000038,,,,,,,,,,,,,,207.9172752000013,207.9190471000038,207.91762920000474,209.24779160000617,209.24918290000642,209.74697800000285,208.4160422000059,208.44223590000183,208.44223590000183,208.44223590000183,208.74681799999962,right,1,0.30198699999891687,None,stimuli/slot2_up.jpg,1,0,1,208.74728070000128,208.7744082000063,208.7744082000063,209.2477807000032,209.7522037000017,209.74699310000142,4100,self win,1,209.7522037000017,211.24736210000265,,,,,,,,,03,2024-06-13_02h43.16.772,two-armed-bandit,2023.2.3,352.3794421928431,2024-06-13 02h43.34.572238 -0400,
3,0,self,win,self_win,1,Play to WIN points,36,stimuli/slot2_up.jpg,1,stimuli/slot1_up.jpg,0,1,1,2,stimuli/slot1_up.jpg,stimuli/slot2_up.jpg,stimuli/slot1_down.jpg,stimuli/slot2_down.jpg,stimuli/slot2_up.jpg,right,,,,,0,36,36,36,211.24948810000205,,,,,,,,,,,,,,211.24766730000556,211.24948810000205,211.24804230000154,212.71802000000025,212.71983120000368,213.21586950000346,211.7456497000021,211.77474830000574,211.77474830000574,211.77474830000574,212.21596980000322,right,1,0.43949939999583876,None,stimuli/slot2_up.jpg,1,0,1,212.21652069999982,212.25146620000305,212.25146620000305,212.7180043000044,213.2181561000034,213.21588700000575,4200,self win,1,213.2181561000034,214.71470270000282,214.71682130000409,,,,,,,,03,2024-06-13_02h43.16.772,two-armed-bandit,2023.2.3,352.3794421928431,2024-06-13 02h43.34.572238 -0400,
3,0,self,win,self_win,1,Play to WIN points,37,stimuli/slot2_up.jpg,0,stimuli/slot1_up.jpg,1,0,2,1,stimuli/slot2_up.jpg,stimuli/slot1_up.jpg,stimuli/slot2_down.jpg,stimuli/slot1_down.jpg,stimuli/slot1_up.jpg,right,,,,,0,37,37,37,214.71682130000409,,,,,,,,,,,,,,214.71501360000548,214.71682130000409,214.7153763000024,216.1074785000019,216.10902910000004,216.60503210000024,215.21373610000592,215.2377540000016,215.2377540000016,215.2377540000016,215.6055495000037,right,1,0.3666345999954501,None,stimuli/slot1_up.jpg,0,1,0,215.60595450000255,215.6282585000008,215.6282585000008,216.10746670000663,216.6076910000047,216.6050482999999,4300,self win,1,216.6076910000047,218.10505640000338,218.1074635000041,,,,,,,,03,2024-06-13_02h43.16.772,two-armed-bandit,2023.2.3,352.3794421928431,2024-06-13 02h43.34.572238 -0400,
3,0,self,win,self_win,1,Play to WIN points,38,stimuli/slot2_up.jpg,1,stimuli/slot1_up.jpg,0,0,2,1,stimuli/slot2_up.jpg,stimuli/slot1_up.jpg,stimuli/slot2_down.jpg,stimuli/slot1_down.jpg,stimuli/slot2_up.jpg,left,,,,,0,38,38,38,218.1074635000041,,,,,,,,,,,,,,218.10542230000283,218.1074635000041,218.10583279999992,219.6485507000034,219.6500784000018,220.146350300005,218.60418150000623,218.63047150000057,218.63047150000057,218.63047150000057,219.1474565000026,right,0,0.51492309999594,None,stimuli/slot1_up.jpg,0,1,0,219.14800160000595,219.17271210000035,219.17271210000035,219.6485385000051,220.15175750000344,220.1463658000066,4300,self avoid win,0,220.15175750000344,221.64904390000447,,,,,,,,,03,2024-06-13_02h43.16.772,two-armed-bandit,2023.2.3,352.3794421928431,2024-06-13 02h43.34.572238 -0400,
3,0,self,win,self_win,1,Play to WIN points,39,stimuli/slot2_up.jpg,1,stimuli/slot1_up.jpg,0,1,1,2,stimuli/slot1_up.jpg,stimuli/slot2_up.jpg,stimuli/slot1_down.jpg,stimuli/slot2_down.jpg,stimuli/slot2_up.jpg,right,,,,,0,39,39,39,221.65129290000186,,,,,,,,,,,,,,221.6493643000067,221.65129290000186,221.6497767000037,223.05767760000163,223.05914610000036,223.55556650000653,222.14785560000018,222.1700101000024,222.1700101000024,222.1700101000024,222.55628190000425,right,1,0.38479499999812106,None,stimuli/slot2_up.jpg,1,0,1,222.55669950000447,222.58302180000464,222.58302180000464,223.05766690000019,223.56126800000493,223.5555855000057,4400,self win,1,223.56126800000493,225.05836550000095,,,,,,,,,03,2024-06-13_02h43.16.772,two-armed-bandit,2023.2.3,352.3794421928431,2024-06-13 02h43.34.572238 -0400,
3,0,self,win,self_win,1,Play to WIN points,40,stimuli/slot2_up.jpg,1,stimuli/slot1_up.jpg,0,1,1,2,stimuli/slot1_up.jpg,stimuli/slot2_up.jpg,stimuli/slot1_down.jpg,stimuli/slot2_down.jpg,stimuli/slot2_up.jpg,right,,,,,0,40,40,40,225.06062030000612,,,,,,,,,,,,,,225.0586842000048,225.06062030000612,225.05910430000222,226.4888601000057,226.49027060000662,226.986144100003,225.55749769999966,225.58310930000152,225.58310930000152,225.58310930000152,225.98748580000392,right,1,0.40125300000363495,None,stimuli/slot2_up.jpg,1,0,1,225.98793520000618,226.01288670000213,226.01288670000213,226.4888482000024,226.98798560000432,226.9861560999998,4500,self win,1,226.98798560000432,228.4847418000063,228.4869525000031,,,,,,,,03,2024-06-13_02h43.16.772,two-armed-bandit,2023.2.3,352.3794421928431,2024-06-13 02h43.34.572238 -0400,
3,0,self,win,self_win,1,Play to WIN points,41,stimuli/slot2_up.jpg,1,stimuli/slot1_up.jpg,0,0,2,1,stimuli/slot2_up.jpg,stimuli/slot1_up.jpg,stimuli/slot2_down.jpg,stimuli/slot1_down.jpg,stimuli/slot2_up.jpg,left,,,,,0,41,41,41,228.4869525000031,,,,,,,,,,,,,,228.48508910000237,228.4869525000031,228.48544290000427,229.95757900000172,229.95915410000453,230.4552940000067,228.98321120000037,229.00794330000645,229.00794330000645,229.00794330000645,229.4563963000037,right,0,0.4460809000011068,None,stimuli/slot1_up.jpg,0,1,0,229.45686370000476,229.480478700003,229.480478700003,229.95756560000154,230.45958110000356,230.45530490000237,4500,self avoid win,0,230.45958110000356,231.95650260000548,231.96215680000023,,,,,,,,03,2024-06-13_02h43.16.772,two-armed-bandit,2023.2.3,352.3794421928431,2024-06-13 02h43.34.572238 -0400,
3,0,self,win,self_win,1,Play to WIN points,42,stimuli/slot2_up.jpg,1,stimuli/slot1_up.jpg,0,0,2,1,stimuli/slot2_up.jpg,stimuli/slot1_up.jpg,stimuli/slot2_down.jpg,stimuli/slot1_down.jpg,stimuli/slot2_up.jpg,left,,,,,0,42,42,42,231.96215680000023,,,,,,,,,,,,,,231.95736240000406,231.96215680000023,231.9581243000066,233.2786752000029,233.28004650000366,233.77703780000593,232.45931920000294,232.48716970000532,232.48716970000532,232.48716970000532,232.77726870000333,right,0,0.2887036999964039,None,stimuli/slot1_up.jpg,0,1,0,232.77768320000177,232.80230470000242,232.80230470000242,233.27866380000341,233.7792896000028,233.7770518000034,4500,self avoid win,0,233.7792896000028,235.276303000006,235.27840470000228,,,,,,,,03,2024-06-13_02h43.16.772,two-armed-bandit,2023.2.3,352.3794421928431,2024-06-13 02h43.34.572238 -0400,
3,0,self,win,self_win,1,Play to WIN points,43,stimuli/slot2_up.jpg,1,stimuli/slot1_up.jpg,0,1,1,2,stimuli/slot1_up.jpg,stimuli/slot2_up.jpg,stimuli/slot1_down.jpg,stimuli/slot2_down.jpg,stimuli/slot2_up.jpg,right,,,,,0,43,43,43,235.27840470000228,,,,,,,,,,,,,,235.2766139000014,235.27840470000228,235.27697310000076,236.74767790000624,236.7494069000022,237.24600480000663,235.77481320000516,235.7984104999996,235.7984104999996,235.7984104999996,236.24610970000504,right,1,0.44656830000167247,None,stimuli/slot2_up.jpg,1,0,1,236.24654790000204,236.27460310000606,236.27460310000606,236.74766410000302,237.2513248000032,237.24601910000638,4600,self win,1,237.2513248000032,238.74789020000026,,,,,,,,,03,2024-06-13_02h43.16.772,two-armed-bandit,2023.2.3,352.3794421928431,2024-06-13 02h43.34.572238 -0400,
3,0,self,win,self_win,1,Play to WIN points,44,stimuli/slot2_up.jpg,1,stimuli/slot1_up.jpg,0,0,2,1,stimuli/slot2_up.jpg,stimuli/slot1_up.jpg,stimuli/slot2_down.jpg,stimuli/slot1_down.jpg,stimuli/slot2_up.jpg,left,,,,,0,44,44,44,238.7500050000017,,,,,,,,,,,,,,238.74818980000418,238.7500050000017,238.74858880000102,239.99776890000066,239.99930490000406,240.4959480000034,239.2467620000025,239.27339480000228,239.27339480000228,239.27339480000228,239.49674680000317,right,0,0.22238710000237916,None,stimuli/slot1_up.jpg,0,1,0,239.4971061000033,239.51804770000308,239.51804770000308,239.99775640000007,240.50209970000287,240.49596290000045,4600,self avoid win,0,240.50209970000287,241.99885110000469,,,,,,,,,03,2024-06-13_02h43.16.772,two-armed-bandit,2023.2.3,352.3794421928431,2024-06-13 02h43.34.572238 -0400,
3,0,self,win,self_win,1,Play to WIN points,45,stimuli/slot2_up.jpg,1,stimuli/slot1_up.jpg,0,1,1,2,stimuli/slot1_up.jpg,stimuli/slot2_up.jpg,stimuli/slot1_down.jpg,stimuli/slot2_down.jpg,stimuli/slot2_up.jpg,right,,,,,0,45,45,45,242.00123870000243,,,,,,,,,,,,,,241.99919910000608,242.00123870000243,241.99962340000639,243.1574408000015,243.15878320000047,243.65611250000075,242.49855050000042,242.5265023000029,242.5265023000029,242.5265023000029,242.65614740000456,left,0,0.12760700000217184,None,stimuli/slot1_up.jpg,0,1,0,242.65648240000155,242.67763520000153,242.67763520000153,243.1574288000047,243.65860890000477,243.65612880000117,4600,self avoid win,0,243.65860890000477,245.15524070000538,245.15829510000185,,,,,,,,03,2024-06-13_02h43.16.772,two-armed-bandit,2023.2.3,352.3794421928431,2024-06-13 02h43.34.572238 -0400,
3,0,self,win,self_win,1,Play to WIN points,46,stimuli/slot2_up.jpg,1,stimuli/slot1_up.jpg,0,0,2,1,stimuli/slot2_up.jpg,stimuli/slot1_up.jpg,stimuli/slot2_down.jpg,stimuli/slot1_down.jpg,stimuli/slot2_up.jpg,left,,,,,0,46,46,46,245.15829510000185,,,,,,,,,,,,,,245.1556813999996,245.15829510000185,245.15622710000025,246.38928660000238,246.3909813000064,246.88742040000216,245.65543610000168,245.68491230000654,245.68491230000654,245.68491230000654,245.88759589999972,right,0,0.19918699999834644,None,stimuli/slot1_up.jpg,0,1,0,245.88808690000587,245.9182901000022,245.9182901000022,246.38927340000373,246.889353700004,246.8874341000046,4600,self avoid win,0,246.889353700004,248.3865952000051,248.38890320000064,,,,,,,,03,2024-06-13_02h43.16.772,two-armed-bandit,2023.2.3,352.3794421928431,2024-06-13 02h43.34.572238 -0400,
3,0,self,win,self_win,1,Play to WIN points,47,stimuli/slot2_up.jpg,0,stimuli/slot1_up.jpg,1,0,2,1,stimuli/slot2_up.jpg,stimuli/slot1_up.jpg,stimuli/slot2_down.jpg,stimuli/slot1_down.jpg,stimuli/slot1_up.jpg,right,,,,,0,47,47,47,248.38890320000064,,,,,,,,,,,,,,248.38695030000235,248.38890320000064,248.38733080000384,249.62844300000143,249.62983800000075,250.12798010000552,248.88566120000178,248.91105430000607,248.91105430000607,248.91105430000607,249.1267569000047,right,1,0.21441459999914514,None,stimuli/slot1_up.jpg,0,1,0,249.1271046000038,249.14951800000563,249.14951800000563,249.6284317000027,248.91105430000607,250.12801390000095,4700,self win,1,250.1433696000022,251.62789160000102,,,,,,,,,03,2024-06-13_02h43.16.772,two-armed-bandit,2023.2.3,352.3794421928431,2024-06-13 02h43.34.572238 -0400,
3,0,self,win,self_win,1,Play to WIN points,48,stimuli/slot2_up.jpg,0,stimuli/slot1_up.jpg,1,1,1,2,stimuli/slot1_up.jpg,stimuli/slot2_up.jpg,stimuli/slot1_down.jpg,stimuli/slot2_down.jpg,stimuli/slot1_up.jpg,left,,,,,0,48,48,48,251.62998010000592,,,,,,,,,,,,,,251.62819600000512,251.62998010000592,251.628555400006,252.96966810000595,252.97166790000483,253.46857970000565,252.12814160000562,252.16861650000646,252.16861650000646,252.16861650000646,252.46728440000152,right,0,0.29698780000035185,None,stimuli/slot2_up.jpg,1,0,1,252.46792890000506,252.50678100000368,252.50678100000368,252.96965250000358,252.16861650000646,253.4685903999998,4700,self avoid win,0,253.47369820000313,254.96870190000482,,,,,,,,,03,2024-06-13_02h43.16.772,two-armed-bandit,2023.2.3,352.3794421928431,2024-06-13 02h43.34.572238 -0400,
3,0,self,win,self_win,1,Play to WIN points,49,stimuli/slot2_up.jpg,1,stimuli/slot1_up.jpg,0,0,2,1,stimuli/slot2_up.jpg,stimuli/slot1_up.jpg,stimuli/slot2_down.jpg,stimuli/slot1_down.jpg,stimuli/slot2_up.jpg,left,,,,,0,49,49,49,254.97101340000518,,,,,,,,,,,,,,254.96905560000596,254.97101340000518,254.96945340000093,256.3368197000018,256.3384619000062,256.83443439999974,255.46874260000186,255.498568300005,255.498568300005,255.498568300005,255.83561340000597,right,0,0.3357239000033587,None,stimuli/slot1_up.jpg,0,1,0,255.83602640000026,255.8589060000013,255.8589060000013,256.3368067000047,256.8366273000065,256.83444870000676,4700,self avoid win,0,256.8366273000065,258.3344290000023,258.33678409999993,,,,,,,,03,2024-06-13_02h43.16.772,two-armed-bandit,2023.2.3,352.3794421928431,2024-06-13 02h43.34.572238 -0400,
3,0,self,win,self_win,1,Play to WIN points,50,stimuli/slot2_up.jpg,0,stimuli/slot1_up.jpg,1,0,2,1,stimuli/slot2_up.jpg,stimuli/slot1_up.jpg,stimuli/slot2_down.jpg,stimuli/slot1_down.jpg,stimuli/slot1_up.jpg,right,,,,,0,50,50,50,258.33678409999993,,,,,,,,,,,,,,258.3347764000064,258.33678409999993,258.3351865000004,259.7374526000058,259.73893160000443,260.2360719000062,258.833363800004,258.85698130000674,258.85698130000674,258.85698130000674,259.23631300000125,right,1,0.37785660000372445,None,stimuli/slot1_up.jpg,0,1,0,259.2367230000018,259.25994950000313,259.25994950000313,259.7374396000014,260.2412500999999,260.236086900004,4800,self win,1,260.2412500999999,261.7371476000044,,,,,,,,,03,2024-06-13_02h43.16.772,two-armed-bandit,2023.2.3,352.3794421928431,2024-06-13 02h43.34.572238 -0400,
3,0,self,win,self_win,1,Play to WIN points,51,stimuli/slot2_up.jpg,1,stimuli/slot1_up.jpg,0,0,2,1,stimuli/slot2_up.jpg,stimuli/slot1_up.jpg,stimuli/slot2_down.jpg,stimuli/slot1_down.jpg,stimuli/slot2_up.jpg,left,,,,,0,51,51,51,261.7391867000042,,,,,,,,,,,,,,261.73744300000544,261.7391867000042,261.73775910000404,264.62781879999966,264.62947520000307,265.12649510000483,262.23525670000527,262.26123740000185,262.26123740000185,262.26123740000185,264.1261089000036,right,0,1.863766399997985,None,stimuli/slot1_up.jpg,0,1,0,264.12653500000306,264.1524661000003,264.1524661000003,264.6278051000045,265.1322044000044,265.1265087000065,4800,self avoid win,0,265.1322044000044,266.6283429000032,,,,,,,,,03,2024-06-13_02h43.16.772,two-armed-bandit,2023.2.3,352.3794421928431,2024-06-13 02h43.34.572238 -0400,
3,0,self,win,self_win,1,Play to WIN points,52,stimuli/slot2_up.jpg,1,stimuli/slot1_up.jpg,0,0,2,1,stimuli/slot2_up.jpg,stimuli/slot1_up.jpg,stimuli/slot2_down.jpg,stimuli/slot1_down.jpg,stimuli/slot2_up.jpg,left,,,,,0,52,52,52,266.63062030000583,,,,,,,,,,,,,,266.62867490000644,266.63062030000583,266.6290788000042,268.11789580000186,268.1193553000048,268.6158821000063,267.1275730000052,267.15272130000085,267.15272130000085,267.15272130000085,267.6161862000008,right,0,0.4620024999967427,None,stimuli/slot1_up.jpg,0,1,0,267.6165716000032,267.63903440000286,267.63903440000286,268.11788420000084,268.61775620000117,268.6158940000023,4800,self avoid win,0,268.61775620000117,270.11451710000256,270.1164901000011,,,,,,,,03,2024-06-13_02h43.16.772,two-armed-bandit,2023.2.3,352.3794421928431,2024-06-13 02h43.34.572238 -0400,
3,0,self,win,self_win,1,Play to WIN points,53,stimuli/slot2_up.jpg,1,stimuli/slot1_up.jpg,0,0,2,1,stimuli/slot2_up.jpg,stimuli/slot1_up.jpg,stimuli/slot2_down.jpg,stimuli/slot1_down.jpg,stimuli/slot2_up.jpg,left,,,,,0,53,53,53,270.1164901000011,,,,,,,,,,,,,,270.1148081000065,270.1164901000011,270.1151456000007,271.61901970000326,271.62058660000184,272.1170643000005,270.613572000002,270.63570070000424,270.63570070000424,270.63570070000424,271.1169044000053,right,0,0.47984469999937573,None,stimuli/slot1_up.jpg,0,1,0,271.11734140000044,271.14209760000085,271.14209760000085,271.6190066000054,272.1193151000043,272.11707970000134,4800,self avoid win,0,272.1193151000043,273.61536600000545,273.6174849000017,,,,,,,,03,2024-06-13_02h43.16.772,two-armed-bandit,2023.2.3,352.3794421928431,2024-06-13 02h43.34.572238 -0400,
3,0,self,win,self_win,1,Play to WIN points,54,stimuli/slot2_up.jpg,0,stimuli/slot1_up.jpg,1,0,2,1,stimuli/slot2_up.jpg,stimuli/slot1_up.jpg,stimuli/slot2_down.jpg,stimuli/slot1_down.jpg,stimuli/slot1_up.jpg,right,,,,,0,54,54,54,273.6174849000017,,,,,,,,,,,,,,273.61569960000634,273.6174849000017,273.6160263000056,274.8875107000058,274.88881709999987,275.3859515000004,274.11366160000034,274.1415704000028,274.1415704000028,274.1415704000028,274.3864271000057,right,1,0.2430951999995159,None,stimuli/slot1_up.jpg,0,1,0,274.3868250000014,274.4110081000035,274.4110081000035,274.8875002000059,275.3919068000032,275.38596680000046,4900,self win,1,275.3919068000032,276.88859120000416,,,,,,,,,03,2024-06-13_02h43.16.772,two-armed-bandit,2023.2.3,352.3794421928431,2024-06-13 02h43.34.572238 -0400,
3,0,self,win,self_win,1,Play to WIN points,55,stimuli/slot2_up.jpg,1,stimuli/slot1_up.jpg,0,1,1,2,stimuli/slot1_up.jpg,stimuli/slot2_up.jpg,stimuli/slot1_down.jpg,stimuli/slot2_down.jpg,stimuli/slot2_up.jpg,right,,,,,0,55,55,55,276.8911375000025,,,,,,,,,,,,,,276.8890121000004,276.8911375000025,276.8894642000014,278.1918607000043,278.1939807000017,278.69033320000017,277.38761250000243,277.42054780000035,277.42054780000035,277.42054780000035,277.6907127000013,right,1,0.26517210000019986,None,stimuli/slot2_up.jpg,1,0,1,277.69166920000134,277.738027600004,277.738027600004,278.19184540000424,278.6926048000023,278.69034960000135,5000,self win,1,278.6926048000023,280.18918020000274,280.191370200002,,,,,,,,03,2024-06-13_02h43.16.772,two-armed-bandit,2023.2.3,352.3794421928431,2024-06-13 02h43.34.572238 -0400,
3,0,self,win,self_win,1,Play to WIN points,56,stimuli/slot2_up.jpg,1,stimuli/slot1_up.jpg,0,1,1,2,stimuli/slot1_up.jpg,stimuli/slot2_up.jpg,stimuli/slot1_down.jpg,stimuli/slot2_down.jpg,stimuli/slot2_up.jpg,right,,,,,0,56,56,56,280.191370200002,,,,,,,,,,,,,,280.18949630000134,280.191370200002,280.1898336000013,281.96836020000046,281.970115300006,282.4671080000044,280.68769830000383,280.71452580000187,280.71452580000187,280.71452580000187,281.4661400000041,right,1,0.7504159000018262,None,stimuli/slot2_up.jpg,1,0,1,281.46654250000574,281.492026800006,281.492026800006,281.9683470000018,280.71452580000187,282.46712169999955,5100,self win,1,282.4692877000052,283.9664679000052,283.96865770000295,,,,,,,,03,2024-06-13_02h43.16.772,two-armed-bandit,2023.2.3,352.3794421928431,2024-06-13 02h43.34.572238 -0400,
3,0,self,win,self_win,1,Play to WIN points,57,stimuli/slot2_up.jpg,0,stimuli/slot1_up.jpg,1,1,1,2,stimuli/slot1_up.jpg,stimuli/slot2_up.jpg,stimuli/slot1_down.jpg,stimuli/slot2_down.jpg,stimuli/slot1_up.jpg,left,,,,,0,57,57,57,283.96865770000295,,,,,,,,,,,,,,283.96681300000637,283.96865770000295,283.96716140000353,285.31881910000084,285.32020350000676,285.81670160000067,284.4647318999996,284.4896375000026,284.4896375000026,284.4896375000026,284.817057500004,right,0,0.32492130000173347,None,stimuli/slot2_up.jpg,1,0,1,284.8174563000066,284.84031400000094,284.84031400000094,285.3188081000044,285.82107360000373,285.8167143000028,5100,self avoid win,0,285.82107360000373,287.3184856000007,,,,,,,,,03,2024-06-13_02h43.16.772,two-armed-bandit,2023.2.3,352.3794421928431,2024-06-13 02h43.34.572238 -0400,
3,0,self,win,self_win,1,Play to WIN points,58,stimuli/slot2_up.jpg,1,stimuli/slot1_up.jpg,0,1,1,2,stimuli/slot1_up.jpg,stimuli/slot2_up.jpg,stimuli/slot1_down.jpg,stimuli/slot2_down.jpg,stimuli/slot2_up.jpg,right,,,,,0,58,58,58,287.3207545000041,,,,,,,,,,,,,,287.31881440000143,287.3207545000041,287.31921500000317,290.2881297000058,290.2897626000049,290.78599220000615,287.81699389999994,287.84104570000636,287.84104570000636,287.84104570000636,289.787061300005,right,1,1.9434482000069693,None,stimuli/slot2_up.jpg,1,0,1,289.7874613000022,289.8135892000064,289.8135892000064,290.28811630000564,290.79110290000244,290.78600440000446,5200,self win,1,290.79110290000244,292.28765530000237,292.29042990000016,,,,,,,,03,2024-06-13_02h43.16.772,two-armed-bandit,2023.2.3,352.3794421928431,2024-06-13 02h43.34.572238 -0400,
3,0,self,win,self_win,1,Play to WIN points,59,stimuli/slot2_up.jpg,0,stimuli/slot1_up.jpg,1,1,1,2,stimuli/slot1_up.jpg,stimuli/slot2_up.jpg,stimuli/slot1_down.jpg,stimuli/slot2_down.jpg,stimuli/slot1_up.jpg,left,,,,,0,59,59,59,292.29042990000016,,,,,,,,,,,,,,292.28805190000276,292.29042990000016,292.2884805000067,294.7981968000022,294.79981650000263,295.29620520000026,292.78711509999994,292.81462420000025,292.81462420000025,292.81462420000025,294.2966946000015,right,0,1.4807201999938115,None,stimuli/slot2_up.jpg,1,0,1,294.2971464000002,294.3213657000015,294.3213657000015,294.7981820000059,295.3012708000024,295.296219200005,5200,self avoid win,0,295.3012708000024,296.7981897999998,,,,,,,,,03,2024-06-13_02h43.16.772,two-armed-bandit,2023.2.3,352.3794421928431,2024-06-13 02h43.34.572238 -0400,
3,0,self,win,self_win,1,Play to WIN points,60,stimuli/slot2_up.jpg,1,stimuli/slot1_up.jpg,0,1,1,2,stimuli/slot1_up.jpg,stimuli/slot2_up.jpg,stimuli/slot1_down.jpg,stimuli/slot2_down.jpg,stimuli/slot2_up.jpg,right,,,,,0,60,60,60,296.80093040000065,,,,,,,,,,,,,,296.7985728000058,296.80093040000065,296.7990710000013,298.08783750000293,298.08930660000624,298.58565260000614,297.2971717000037,297.3217947000012,297.3217947000012,297.3217947000012,297.58602000000246,right,1,0.2627193000007537,None,stimuli/slot2_up.jpg,1,0,1,297.5864494000052,297.6147714000035,297.6147714000035,298.08782559999963,298.59135690000403,298.5856663000013,5300,self win,1,298.59135690000403,300.0872834000038,,,,,,,,,03,2024-06-13_02h43.16.772,two-armed-bandit,2023.2.3,352.3794421928431,2024-06-13 02h43.34.572238 -0400,
3,0,self,win,self_win,1,Play to WIN points,61,stimuli/slot2_up.jpg,1,stimuli/slot1_up.jpg,0,1,1,2,stimuli/slot1_up.jpg,stimuli/slot2_up.jpg,stimuli/slot1_down.jpg,stimuli/slot2_down.jpg,stimuli/slot2_up.jpg,right,,,,,0,61,61,61,300.08969150000485,,,,,,,,,,,,,,300.0876575000002,300.08969150000485,300.0880765000038,301.13726470000256,301.13886730000377,301.63565740000195,300.5867021000013,300.61112150000554,300.61112150000554,300.61112150000554,300.63671720000275,right,1,0.023152200003096368,None,stimuli/slot2_up.jpg,1,0,1,300.63710150000406,300.662903000004,300.662903000004,301.13725140000315,301.63766740000574,301.63567290000356,5400,self win,1,301.63766740000574,303.13445880000654,303.13692040000024,,,,,,,,03,2024-06-13_02h43.16.772,two-armed-bandit,2023.2.3,352.3794421928431,2024-06-13 02h43.34.572238 -0400,
3,0,self,win,self_win,1,Play to WIN points,62,stimuli/slot2_up.jpg,1,stimuli/slot1_up.jpg,0,1,1,2,stimuli/slot1_up.jpg,stimuli/slot2_up.jpg,stimuli/slot1_down.jpg,stimuli/slot2_down.jpg,stimuli/slot2_up.jpg,right,,,,,0,62,62,62,303.13692040000024,,,,,,,,,,,,,,303.13490480000473,303.13692040000024,303.13531499999954,304.297186900003,304.2987318000014,304.7950767000002,303.6339525000003,303.66130970000086,303.66130970000086,303.66130970000086,303.79604480000125,right,1,0.13259159999870462,None,stimuli/slot2_up.jpg,1,0,1,303.7964326000001,303.81867369999964,303.81867369999964,304.2971736000036,304.79740460000176,304.7950908000057,5500,self win,1,304.79740460000176,306.2954890000037,306.2980553000016,,,,,,,,03,2024-06-13_02h43.16.772,two-armed-bandit,2023.2.3,352.3794421928431,2024-06-13 02h43.34.572238 -0400,
3,0,self,win,self_win,1,Play to WIN points,63,stimuli/slot2_up.jpg,1,stimuli/slot1_up.jpg,0,1,1,2,stimuli/slot1_up.jpg,stimuli/slot2_up.jpg,stimuli/slot1_down.jpg,stimuli/slot2_down.jpg,stimuli/slot2_up.jpg,right,,,,,0,63,63,63,306.2980553000016,,,,,,,,,,,,,,306.29587300000276,306.2980553000016,306.29628490000323,308.8873104000013,308.8888606000037,309.3851649000062,306.7940067000018,306.82241060000524,306.82241060000524,306.82241060000524,308.3860969000016,right,1,1.5615591000023414,None,stimuli/slot2_up.jpg,1,0,1,308.3864720000056,308.40839080000296,308.40839080000296,308.8872981000022,309.38751830000547,309.3851818000039,5600,self win,1,309.38751830000547,310.8839739000032,310.8867151000013,,,,,,,,03,2024-06-13_02h43.16.772,two-armed-bandit,2023.2.3,352.3794421928431,2024-06-13 02h43.34.572238 -0400,
3,0,self,win,self_win,1,Play to WIN points,64,stimuli/slot2_up.jpg,1,stimuli/slot1_up.jpg,0,1,1,2,stimuli/slot1_up.jpg,stimuli/slot2_up.jpg,stimuli/slot1_down.jpg,stimuli/slot2_down.jpg,stimuli/slot2_up.jpg,right,,,,,0,64,64,64,310.8867151000013,,,,,,,,,,,,,,310.88444750000053,310.8867151000013,310.8849098999999,312.1574827000004,312.1588408000025,312.65485140000237,311.38258530000167,311.40967410000303,311.40967410000303,311.40967410000303,311.6557950999995,right,1,0.2446577000009711,None,stimuli/slot2_up.jpg,1,0,1,311.6561509000021,311.68165430000226,311.68165430000226,312.15747140000167,312.65712950000307,312.65486729999975,5700,self win,1,312.65712950000307,314.1535023000033,314.15568460000213,,,,,,,,03,2024-06-13_02h43.16.772,two-armed-bandit,2023.2.3,352.3794421928431,2024-06-13 02h43.34.572238 -0400,
3,0,self,win,self_win,1,Play to WIN points,65,stimuli/slot2_up.jpg,1,stimuli/slot1_up.jpg,0,0,2,1,stimuli/slot2_up.jpg,stimuli/slot1_up.jpg,stimuli/slot2_down.jpg,stimuli/slot1_down.jpg,stimuli/slot2_up.jpg,left,,,,,0,65,65,65,314.15568460000213,,,,,,,,,,,,,,314.15381300000445,314.15568460000213,314.1541821999999,315.33768200000486,315.3395074,315.8358698000011,314.6528294000018,314.6810994000043,314.6810994000043,314.6810994000043,314.8355448000002,right,0,0.15329570000176318,None,stimuli/slot1_up.jpg,0,1,0,314.8359524000043,314.8623571999997,314.8623571999997,315.33765230000427,315.84188030000223,315.83588690000033,5700,self avoid win,0,315.84188030000223,317.33800540000084,,,,,,,,,03,2024-06-13_02h43.16.772,two-armed-bandit,2023.2.3,352.3794421928431,2024-06-13 02h43.34.572238 -0400,
3,0,self,win,self_win,1,Play to WIN points,66,stimuli/slot2_up.jpg,1,stimuli/slot1_up.jpg,0,0,2,1,stimuli/slot2_up.jpg,stimuli/slot1_up.jpg,stimuli/slot2_down.jpg,stimuli/slot1_down.jpg,stimuli/slot2_up.jpg,left,,,,,0,66,66,66,317.3403701999996,,,,,,,,,,,,,,317.33836390000215,317.3403701999996,317.3387831,319.24564680000185,319.2472112000032,319.7430613000033,317.8367541000043,317.8602073000002,317.8602073000002,317.8602073000002,318.7449639000042,right,0,0.8836612999948557,None,stimuli/slot1_up.jpg,0,1,0,318.7453209000014,318.7755402000039,318.7755402000039,319.2456336000032,319.74494410000625,319.74307310000586,5700,self avoid win,0,319.74494410000625,321.24163200000476,321.2438758000062,,,,,,,,03,2024-06-13_02h43.16.772,two-armed-bandit,2023.2.3,352.3794421928431,2024-06-13 02h43.34.572238 -0400,
3,0,self,win,self_win,1,Play to WIN points,67,stimuli/slot2_up.jpg,1,stimuli/slot1_up.jpg,0,1,1,2,stimuli/slot1_up.jpg,stimuli/slot2_up.jpg,stimuli/slot1_down.jpg,stimuli/slot2_down.jpg,stimuli/slot2_up.jpg,right,,,,,0,67,67,67,321.2438758000062,,,,,,,,,,,,,,321.2419869000005,321.2438758000062,321.2423138000013,323.0967085000011,323.0980598000024,323.59487460000673,321.7398064000008,321.7715354000029,321.7715354000029,321.7715354000029,322.59519710000313,right,1,0.822272299999895,None,stimuli/slot2_up.jpg,1,0,1,322.5955979000064,322.6216776000001,322.6216776000001,323.0966974000039,323.60037460000603,323.59488960000454,5800,self win,1,323.60037460000603,325.09578180000244,,,,,,,,,03,2024-06-13_02h43.16.772,two-armed-bandit,2023.2.3,352.3794421928431,2024-06-13 02h43.34.572238 -0400,
3,0,self,win,self_win,1,Play to WIN points,68,stimuli/slot2_up.jpg,1,stimuli/slot1_up.jpg,0,1,1,2,stimuli/slot1_up.jpg,stimuli/slot2_up.jpg,stimuli/slot1_down.jpg,stimuli/slot2_down.jpg,stimuli/slot2_up.jpg,right,,,,,0,68,68,68,325.0980184,,,,,,,,,,,,,,325.0961255000002,325.0980184,325.09652389999974,328.09704559999955,328.0988187000039,328.59505710000667,325.5941745000018,325.6175483000043,325.6175483000043,325.6175483000043,327.59820530000434,None,0,,,,,,,327.59846530000505,327.62544110000454,327.62544110000454,328.0970326000024,328.599724700005,328.5950720000037,5800,missed,,328.599724700005,330.0962761000046,330.0985793,,,,,,,,03,2024-06-13_02h43.16.772,two-armed-bandit,2023.2.3,352.3794421928431,2024-06-13 02h43.34.572238 -0400,
3,0,self,win,self_win,1,Play to WIN points,69,stimuli/slot2_up.jpg,1,stimuli/slot1_up.jpg,0,0,2,1,stimuli/slot2_up.jpg,stimuli/slot1_up.jpg,stimuli/slot2_down.jpg,stimuli/slot1_down.jpg,stimuli/slot2_up.jpg,left,,,,,0,69,69,69,330.0985793,,,,,,,,,,,,,,330.0966335000048,330.0985793,330.0970073999997,331.33767540000554,331.33932440000353,331.83628780000436,330.5951825000011,330.6194442000051,330.6194442000051,330.6194442000051,330.83591380000144,right,0,0.2148936000012327,None,stimuli/slot1_up.jpg,0,1,0,330.8363540999999,330.86046130000614,330.86046130000614,331.33766240000114,331.8410659000001,331.83630149999954,5800,self avoid win,0,331.8410659000001,333.33816630000365,,,,,,,,,03,2024-06-13_02h43.16.772,two-armed-bandit,2023.2.3,352.3794421928431,2024-06-13 02h43.34.572238 -0400,
3,0,self,win,self_win,1,Play to WIN points,70,stimuli/slot2_up.jpg,1,stimuli/slot1_up.jpg,0,0,2,1,stimuli/slot2_up.jpg,stimuli/slot1_up.jpg,stimuli/slot2_down.jpg,stimuli/slot1_down.jpg,stimuli/slot2_up.jpg,left,,,,,0,70,70,70,333.34068860000116,,,,,,,,,,,,,,333.338527800006,333.34068860000116,333.33897270000307,334.44780440000613,334.44930960000056,334.9462272000019,333.8376258999997,333.86232340000424,333.86232340000424,333.86232340000424,333.946300100004,right,0,0.08166830000118352,None,stimuli/slot1_up.jpg,0,1,0,333.9467034000045,333.9694251000037,333.9694251000037,334.4477928000051,334.948550000001,334.9462421000062,5800,self avoid win,0,334.948550000001,336.4459693000026,336.4484661000024,,,,,,,,03,2024-06-13_02h43.16.772,two-armed-bandit,2023.2.3,352.3794421928431,2024-06-13 02h43.34.572238 -0400,
3,0,self,win,self_win,1,Play to WIN points,71,stimuli/slot2_up.jpg,0,stimuli/slot1_up.jpg,1,1,1,2,stimuli/slot1_up.jpg,stimuli/slot2_up.jpg,stimuli/slot1_down.jpg,stimuli/slot2_down.jpg,stimuli/slot1_up.jpg,left,,,,,0,71,71,71,336.4484661000024,,,,,,,,,,,,,,336.44634720000613,336.4484661000024,336.4467803000007,337.77586110000266,337.7773598000058,338.27421940000204,336.94534060000296,336.9680331000054,336.9680331000054,336.9680331000054,337.27510710000206,right,0,0.30607180000515655,None,stimuli/slot2_up.jpg,1,0,1,337.275564100004,337.3031820000033,337.3031820000033,337.77584970000316,338.27613000000565,338.2742324999999,5800,self avoid win,0,338.27613000000565,339.7721206999995,339.82024300000194,,,,,,,,03,2024-06-13_02h43.16.772,two-armed-bandit,2023.2.3,352.3794421928431,2024-06-13 02h43.34.572238 -0400,
,,,,,,,,,,,,,,,,,,,,,,,,,,,,,,,,,,,,,,,,,,,,,,,,,,,,,,,,,,,,,,,,,,,,,,,,,,,,,,339.79456870000286,339.82024300000194,449.0860466000013,,,,,,,
