key_resp_hello.keys,key_resp_hello.rt,participant,session,date,expName,psychopyVersion,OS,frameRate,start_bwd.keys,start_bwd.rt,textbox.text,correct,key_resp.keys,key_resp.rt,trials.thisRepN,trials.thisTrialN,trials.thisN,trials.thisIndex,trials.ran,digitSpan,digits,response,start_fwd.keys,start_fwd.rt,textbox_fwd.text,key_resp_fwd.keys,key_resp_fwd.rt,trials_fwd.thisRepN,trials_fwd.thisTrialN,trials_fwd.thisN,trials_fwd.thisIndex,trials_fwd.ran,digitSpan_fwd,digits_fwd
space,20.095,emirgulcan,001,2023-03-16_13h43.17.498,Digit Span Task,2022.2.5,Win32,59.97361161,,,,,,,,,,,,,,,,,,,,,,,,,,
,,emirgulcan,001,2023-03-16_13h43.17.498,Digit Span Task,2022.2.5,Win32,59.97361161,space,3678.029,,,,,,,,,,,,,,,,,,,,,,,,
,,emirgulcan,001,2023-03-16_13h43.17.498,Digit Span Task,2022.2.5,Win32,59.97361161,,,615,1,return,2.0271,0,0,0,0,1,3,516,615,,,,,,,,,,,,
,,emirgulcan,001,2023-03-16_13h43.17.498,Digit Span Task,2022.2.5,Win32,59.97361161,,,972,1,return,2.2837,0,1,1,1,1,3,279,972,,,,,,,,,,,,
,,emirgulcan,001,2023-03-16_13h43.17.498,Digit Span Task,2022.2.5,Win32,59.97361161,,,2703,1,return,2.3579,0,0,0,0,1,4,3072,2703,,,,,,,,,,,,
,,emirgulcan,001,2023-03-16_13h43.17.498,Digit Span Task,2022.2.5,Win32,59.97361161,,,1945,1,return,2.8945,0,1,1,1,1,4,5491,1945,,,,,,,,,,,,
,,emirgulcan,001,2023-03-16_13h43.17.498,Digit Span Task,2022.2.5,Win32,59.97361161,,,21941,1,return,6.3843,0,0,0,0,1,5,14912,21941,,,,,,,,,,,,
,,emirgulcan,001,2023-03-16_13h43.17.498,Digit Span Task,2022.2.5,Win32,59.97361161,,,53506,1,return,6.4449,0,1,1,1,1,5,60535,53506,,,,,,,,,,,,
,,emirgulcan,001,2023-03-16_13h43.17.498,Digit Span Task,2022.2.5,Win32,59.97361161,,,846039,1,return,8.9428,0,0,0,0,1,6,930648,846039,,,,,,,,,,,,
,,emirgulcan,001,2023-03-16_13h43.17.498,Digit Span Task,2022.2.5,Win32,59.97361161,,,903971,1,return,11.9522,0,1,1,1,1,6,179309,903971,,,,,,,,,,,,
,,emirgulcan,001,2023-03-16_13h43.17.498,Digit Span Task,2022.2.5,Win32,59.97361161,,,5328944,1,return,12.417,0,0,0,0,1,7,4498235,5328944,,,,,,,,,,,,
,,emirgulcan,001,2023-03-16_13h43.17.498,Digit Span Task,2022.2.5,Win32,59.97361161,,,1734452,1,return,10.1005,0,1,1,1,1,7,2544371,1734452,,,,,,,,,,,,
,,emirgulcan,001,2023-03-16_13h43.17.498,Digit Span Task,2022.2.5,Win32,59.97361161,,,80492264,1,return,13.5215,0,0,0,0,1,8,46229408,80492264,,,,,,,,,,,,
,,emirgulcan,001,2023-03-16_13h43.17.498,Digit Span Task,2022.2.5,Win32,59.97361161,,,28876907,1,return,8.6677,0,1,1,1,1,8,70967882,28876907,,,,,,,,,,,,
,,emirgulcan,001,2023-03-16_13h43.17.498,Digit Span Task,2022.2.5,Win32,59.97361161,,,244373863,1,return,9.417,0,0,0,0,1,9,368373442,244373863,,,,,,,,,,,,
,,emirgulcan,001,2023-03-16_13h43.17.498,Digit Span Task,2022.2.5,Win32,59.97361161,,,919072675,1,return,8.2144,0,1,1,1,1,9,576270919,919072675,,,,,,,,,,,,
,,emirgulcan,001,2023-03-16_13h43.17.498,Digit Span Task,2022.2.5,Win32,59.97361161,,,1808092346,0,return,11.5837,0,0,0,0,1,10,6432900801,1080092346,,,,,,,,,,,,
,,emirgulcan,001,2023-03-16_13h43.17.498,Digit Span Task,2022.2.5,Win32,59.97361161,,,7298437648,1,return,12.9883,0,1,1,1,1,10,8467348927,7298437648,,,,,,,,,,,,
,,emirgulcan,001,2023-03-16_13h43.17.498,Digit Span Task,2022.2.5,Win32,59.97361161,,,3164494814,0,return,11.2003,0,2,2,2,1,10,4184946413,3146494814,,,,,,,,,,,,
,,emirgulcan,001,2023-03-16_13h43.17.498,Digit Span Task,2022.2.5,Win32,59.97361161,,,36504709327,0,return,8.4001,0,0,0,0,1,11,73290740563,36504709237,,,,,,,,,,,,
,,emirgulcan,001,2023-03-16_13h43.17.498,Digit Span Task,2022.2.5,Win32,59.97361161,,,42227784947,1,return,12.5837,0,1,1,1,1,11,74948772224,42227784947,,,,,,,,,,,,
,,emirgulcan,001,2023-03-16_13h43.17.498,Digit Span Task,2022.2.5,Win32,59.97361161,,,27022079648,0,return,16.2664,0,2,2,2,1,11,97084622072,27022648079,,,,,,,,,,,,
,,emirgulcan,001,2023-03-16_13h43.17.498,Digit Span Task,2022.2.5,Win32,59.97361161,,,68208186543,0,return,21.685,0,0,0,0,1,12,6.81346E+11,6.28909E+11,,,,,,,,,,,,
,,emirgulcan,001,2023-03-16_13h43.17.498,Digit Span Task,2022.2.5,Win32,59.97361161,,,371568973278,0,return,25.64,0,1,1,1,1,12,8.7238E+11,3.71857E+11,,,,,,,,,,,,
,,emirgulcan,001,2023-03-16_13h43.17.498,Digit Span Task,2022.2.5,Win32,59.97361161,,,,,,,,,,,,,,,,,,,,,,,,,,
,,emirgulcan,001,2023-03-16_13h43.17.498,Digit Span Task,2022.2.5,Win32,59.97361161,,,,,,,,,,,,,,,space,16.3567,,,,,,,,,,
,,emirgulcan,001,2023-03-16_13h43.17.498,Digit Span Task,2022.2.5,Win32,59.97361161,,,,1,,,,,,,,,,,,,801,return,2.4537,0,0,0,0,1,3,801
,,emirgulcan,001,2023-03-16_13h43.17.498,Digit Span Task,2022.2.5,Win32,59.97361161,,,,1,,,,,,,,,,,,,627,return,1.568,0,1,1,1,1,3,627
,,emirgulcan,001,2023-03-16_13h43.17.498,Digit Span Task,2022.2.5,Win32,59.97361161,,,,1,,,,,,,,,,,,,5286,return,1.5992,0,0,0,0,1,4,5286
,,emirgulcan,001,2023-03-16_13h43.17.498,Digit Span Task,2022.2.5,Win32,59.97361161,,,,1,,,,,,,,,,,,,1029,return,2.0162,0,1,1,1,1,4,1029
,,emirgulcan,001,2023-03-16_13h43.17.498,Digit Span Task,2022.2.5,Win32,59.97361161,,,,1,,,,,,,,,,,,,39624,return,1.9003,0,0,0,0,1,5,39624
,,emirgulcan,001,2023-03-16_13h43.17.498,Digit Span Task,2022.2.5,Win32,59.97361161,,,,1,,,,,,,,,,,,,80996,return,2.5169,0,1,1,1,1,5,80996
,,emirgulcan,001,2023-03-16_13h43.17.498,Digit Span Task,2022.2.5,Win32,59.97361161,,,,1,,,,,,,,,,,,,730142,return,2.5263,0,0,0,0,1,6,730142
,,emirgulcan,001,2023-03-16_13h43.17.498,Digit Span Task,2022.2.5,Win32,59.97361161,,,,1,,,,,,,,,,,,,179390,return,2.6403,0,1,1,1,1,6,179390
,,emirgulcan,001,2023-03-16_13h43.17.498,Digit Span Task,2022.2.5,Win32,59.97361161,,,,1,,,,,,,,,,,,,3387235,return,3.0053,0,0,0,0,1,7,3387235
,,emirgulcan,001,2023-03-16_13h43.17.498,Digit Span Task,2022.2.5,Win32,59.97361161,,,,1,,,,,,,,,,,,,2544261,return,4.4503,0,1,1,1,1,7,2544261
,,emirgulcan,001,2023-03-16_13h43.17.498,Digit Span Task,2022.2.5,Win32,59.97361161,,,,1,,,,,,,,,,,,,46226408,return,3.0734,0,0,0,0,1,8,46226408
,,emirgulcan,001,2023-03-16_13h43.17.498,Digit Span Task,2022.2.5,Win32,59.97361161,,,,1,,,,,,,,,,,,,70967182,return,3.6004,0,1,1,1,1,8,70967182
,,emirgulcan,001,2023-03-16_13h43.17.498,Digit Span Task,2022.2.5,Win32,59.97361161,,,,1,,,,,,,,,,,,,361373842,return,3.717,0,0,0,0,1,9,361373842
,,emirgulcan,001,2023-03-16_13h43.17.498,Digit Span Task,2022.2.5,Win32,59.97361161,,,,1,,,,,,,,,,,,,570270919,return,3.0656,0,1,1,1,1,9,570270919
,,emirgulcan,001,2023-03-16_13h43.17.498,Digit Span Task,2022.2.5,Win32,59.97361161,,,,0,,,,,,,,,,,,,6432900108,return,4.9836,0,0,0,0,1,10,6432900801
,,emirgulcan,001,2023-03-16_13h43.17.498,Digit Span Task,2022.2.5,Win32,59.97361161,,,,0,,,,,,,,,,,,,8467348972,return,4.2836,0,1,1,1,1,10,8467348927
,,emirgulcan,001,2023-03-16_13h43.17.498,Digit Span Task,2022.2.5,Win32,59.97361161,,,,1,,,,,,,,,,,,,4184946413,return,5.1669,0,2,2,2,1,10,4184946413
,,emirgulcan,001,2023-03-16_13h43.17.498,Digit Span Task,2022.2.5,Win32,59.97361161,,,,0,,,,,,,,,,,,,73790740563,return,6.4003,0,0,0,0,1,11,73290740563
,,emirgulcan,001,2023-03-16_13h43.17.498,Digit Span Task,2022.2.5,Win32,59.97361161,,,,1,,,,,,,,,,,,,74948772224,return,11.9187,0,1,1,1,1,11,74948772224
,,emirgulcan,001,2023-03-16_13h43.17.498,Digit Span Task,2022.2.5,Win32,59.97361161,,,,1,,,,,,,,,,,,,97084622072,return,5.4962,0,2,2,2,1,11,97084622072
,,emirgulcan,001,2023-03-16_13h43.17.498,Digit Span Task,2022.2.5,Win32,59.97361161,,,,0,,,,,,,,,,,,,68134580169,return,6.8169,0,0,0,0,1,12,6.81346E+11
,,emirgulcan,001,2023-03-16_13h43.17.498,Digit Span Task,2022.2.5,Win32,59.97361161,,,,0,,,,,,,,,,,,,87237965817,return,7.8002,0,1,1,1,1,12,8.7238E+11
,,emirgulcan,001,2023-03-16_13h43.17.498,Digit Span Task,2022.2.5,Win32,59.97361161,,,,0,,,,,,,,,,,,,241072510512,return,6.9366,0,2,2,2,1,12,2.41072E+11
,,emirgulcan,001,2023-03-16_13h43.17.498,Digit Span Task,2022.2.5,Win32,59.97361161,,,,,,,,,,,,,,,,,,,,,,,,,,
