key_resp_hello.keys,key_resp_hello.rt,participant,session,date,expName,psychopyVersion,OS,frameRate,start_bwd.keys,start_bwd.rt,textbox.text,correct,key_resp.keys,key_resp.rt,trials.thisRepN,trials.thisTrialN,trials.thisN,trials.thisIndex,trials.ran,digitSpan,digits,response,start_fwd.keys,start_fwd.rt,textbox_fwd.text,key_resp_fwd.keys,key_resp_fwd.rt,trials_fwd.thisRepN,trials_fwd.thisTrialN,trials_fwd.thisN,trials_fwd.thisIndex,trials_fwd.ran,digitSpan_fwd,digits_fwd
space,21.4528,selinaygundogan,001,2023-03-19_21h14.53.631,Digit Span Task,2022.2.5,Win32,60.0276127,,,,,,,,,,,,,,,,,,,,,,,,,,
,,selinaygundogan,001,2023-03-19_21h14.53.631,Digit Span Task,2022.2.5,Win32,60.0276127,space,45.2054,,,,,,,,,,,,,,,,,,,,,,,,
,,selinaygundogan,001,2023-03-19_21h14.53.631,Digit Span Task,2022.2.5,Win32,60.0276127,,,615,1,return,2.653,0,0,0,0,1,3,516,615,,,,,,,,,,,,
,,selinaygundogan,001,2023-03-19_21h14.53.631,Digit Span Task,2022.2.5,Win32,60.0276127,,,972,1,return,2.4559,0,1,1,1,1,3,279,972,,,,,,,,,,,,
,,selinaygundogan,001,2023-03-19_21h14.53.631,Digit Span Task,2022.2.5,Win32,60.0276127,,,2703,1,return,2.8675,0,0,0,0,1,4,3072,2703,,,,,,,,,,,,
,,selinaygundogan,001,2023-03-19_21h14.53.631,Digit Span Task,2022.2.5,Win32,60.0276127,,,1945,1,return,3.5666,0,1,1,1,1,4,5491,1945,,,,,,,,,,,,
,,selinaygundogan,001,2023-03-19_21h14.53.631,Digit Span Task,2022.2.5,Win32,60.0276127,,,21941,1,return,6.5519,0,0,0,0,1,5,14912,21941,,,,,,,,,,,,
,,selinaygundogan,001,2023-03-19_21h14.53.631,Digit Span Task,2022.2.5,Win32,60.0276127,,,53506,1,return,5.8512,0,1,1,1,1,5,60535,53506,,,,,,,,,,,,
,,selinaygundogan,001,2023-03-19_21h14.53.631,Digit Span Task,2022.2.5,Win32,60.0276127,,,846039,1,return,6.9016,0,0,0,0,1,6,930648,846039,,,,,,,,,,,,
,,selinaygundogan,001,2023-03-19_21h14.53.631,Digit Span Task,2022.2.5,Win32,60.0276127,,,903971,1,return,5.8333,0,1,1,1,1,6,179309,903971,,,,,,,,,,,,
,,selinaygundogan,001,2023-03-19_21h14.53.631,Digit Span Task,2022.2.5,Win32,60.0276127,,,5328944,1,return,5.2438,0,0,0,0,1,7,4498235,5328944,,,,,,,,,,,,
,,selinaygundogan,001,2023-03-19_21h14.53.631,Digit Span Task,2022.2.5,Win32,60.0276127,,,1734459,0,return,10.16,0,1,1,1,1,7,2544371,1734452,,,,,,,,,,,,
,,selinaygundogan,001,2023-03-19_21h14.53.631,Digit Span Task,2022.2.5,Win32,60.0276127,,,5805736,1,return,9.6959,0,2,2,2,1,7,6375085,5805736,,,,,,,,,,,,
,,selinaygundogan,001,2023-03-19_21h14.53.631,Digit Span Task,2022.2.5,Win32,60.0276127,,,,0,return,5.6622,0,0,0,0,1,8,46229408,80492264,,,,,,,,,,,,
,,selinaygundogan,001,2023-03-19_21h14.53.631,Digit Span Task,2022.2.5,Win32,60.0276127,,,28876907,1,return,11.6344,0,1,1,1,1,8,70967882,28876907,,,,,,,,,,,,
,,selinaygundogan,001,2023-03-19_21h14.53.631,Digit Span Task,2022.2.5,Win32,60.0276127,,,32390176,0,return,8.9511,0,2,2,2,1,8,27109323,32390172,,,,,,,,,,,,
,,selinaygundogan,001,2023-03-19_21h14.53.631,Digit Span Task,2022.2.5,Win32,60.0276127,,,244373863,1,return,11.7787,0,0,0,0,1,9,368373442,244373863,,,,,,,,,,,,
,,selinaygundogan,001,2023-03-19_21h14.53.631,Digit Span Task,2022.2.5,Win32,60.0276127,,,919708675,0,return,25.4937,0,1,1,1,1,9,576270919,919072675,,,,,,,,,,,,
,,selinaygundogan,001,2023-03-19_21h14.53.631,Digit Span Task,2022.2.5,Win32,60.0276127,,,7576886,0,return,22.7171,0,2,2,2,1,9,688655957,759556886,,,,,,,,,,,,
,,selinaygundogan,001,2023-03-19_21h14.53.631,Digit Span Task,2022.2.5,Win32,60.0276127,,,108098346,0,return,16.7411,0,0,0,0,1,10,6432900801,1080092346,,,,,,,,,,,,
,,selinaygundogan,001,2023-03-19_21h14.53.631,Digit Span Task,2022.2.5,Win32,60.0276127,,,,,,,,,,,,,,,,,,,,,,,,,,
,,selinaygundogan,001,2023-03-19_21h14.53.631,Digit Span Task,2022.2.5,Win32,60.0276127,,,,,,,,,,,,,,,space,23.0314,,,,,,,,,,
,,selinaygundogan,001,2023-03-19_21h14.53.631,Digit Span Task,2022.2.5,Win32,60.0276127,,,,1,,,,,,,,,,,,,801,return,3.4926,0,0,0,0,1,3,801
,,selinaygundogan,001,2023-03-19_21h14.53.631,Digit Span Task,2022.2.5,Win32,60.0276127,,,,1,,,,,,,,,,,,,627,return,3.8221,0,1,1,1,1,3,627
,,selinaygundogan,001,2023-03-19_21h14.53.631,Digit Span Task,2022.2.5,Win32,60.0276127,,,,1,,,,,,,,,,,,,5286,return,3.3489,0,0,0,0,1,4,5286
,,selinaygundogan,001,2023-03-19_21h14.53.631,Digit Span Task,2022.2.5,Win32,60.0276127,,,,1,,,,,,,,,,,,,1029,return,3.8074,0,1,1,1,1,4,1029
,,selinaygundogan,001,2023-03-19_21h14.53.631,Digit Span Task,2022.2.5,Win32,60.0276127,,,,1,,,,,,,,,,,,,39624,return,5.2104,0,0,0,0,1,5,39624
,,selinaygundogan,001,2023-03-19_21h14.53.631,Digit Span Task,2022.2.5,Win32,60.0276127,,,,1,,,,,,,,,,,,,80996,return,3.7271,0,1,1,1,1,5,80996
,,selinaygundogan,001,2023-03-19_21h14.53.631,Digit Span Task,2022.2.5,Win32,60.0276127,,,,1,,,,,,,,,,,,,730142,return,4.8366,0,0,0,0,1,6,730142
,,selinaygundogan,001,2023-03-19_21h14.53.631,Digit Span Task,2022.2.5,Win32,60.0276127,,,,1,,,,,,,,,,,,,179390,return,4.1812,0,1,1,1,1,6,179390
,,selinaygundogan,001,2023-03-19_21h14.53.631,Digit Span Task,2022.2.5,Win32,60.0276127,,,,1,,,,,,,,,,,,,3387235,return,5.4863,0,0,0,0,1,7,3387235
,,selinaygundogan,001,2023-03-19_21h14.53.631,Digit Span Task,2022.2.5,Win32,60.0276127,,,,1,,,,,,,,,,,,,2544261,return,4.5456,0,1,1,1,1,7,2544261
,,selinaygundogan,001,2023-03-19_21h14.53.631,Digit Span Task,2022.2.5,Win32,60.0276127,,,,1,,,,,,,,,,,,,46226408,return,19.8282,0,0,0,0,1,8,46226408
,,selinaygundogan,001,2023-03-19_21h14.53.631,Digit Span Task,2022.2.5,Win32,60.0276127,,,,1,,,,,,,,,,,,,70967182,return,7.6625,0,1,1,1,1,8,70967182
,,selinaygundogan,001,2023-03-19_21h14.53.631,Digit Span Task,2022.2.5,Win32,60.0276127,,,,0,,,,,,,,,,,,,36137384,return,9.7678,0,0,0,0,1,9,361373842
,,selinaygundogan,001,2023-03-19_21h14.53.631,Digit Span Task,2022.2.5,Win32,60.0276127,,,,1,,,,,,,,,,,,,570270919,return,7.6287,0,1,1,1,1,9,570270919
,,selinaygundogan,001,2023-03-19_21h14.53.631,Digit Span Task,2022.2.5,Win32,60.0276127,,,,1,,,,,,,,,,,,,688655257,return,13.208,0,2,2,2,1,9,688655257
,,selinaygundogan,001,2023-03-19_21h14.53.631,Digit Span Task,2022.2.5,Win32,60.0276127,,,,0,,,,,,,,,,,,,643290081,return,16.2164,0,0,0,0,1,10,6432900801
,,selinaygundogan,001,2023-03-19_21h14.53.631,Digit Span Task,2022.2.5,Win32,60.0276127,,,,0,,,,,,,,,,,,,84674894,return,9.6626,0,1,1,1,1,10,8467348927
,,selinaygundogan,001,2023-03-19_21h14.53.631,Digit Span Task,2022.2.5,Win32,60.0276127,,,,0,,,,,,,,,,,,,4184946417,return,22.8153,0,2,2,2,1,10,4184946413
,,selinaygundogan,001,2023-03-19_21h14.53.631,Digit Span Task,2022.2.5,Win32,60.0276127,,,,,,,,,,,,,,,,,,,,,,,,,,
