key_resp_hello.keys,key_resp_hello.rt,participant,session,date,expName,psychopyVersion,OS,frameRate,start_bwd.keys,start_bwd.rt,textbox.text,correct,key_resp.keys,key_resp.rt,trials.thisRepN,trials.thisTrialN,trials.thisN,trials.thisIndex,trials.ran,digitSpan,digits,response,start_fwd.keys,start_fwd.rt,textbox_fwd.text,key_resp_fwd.keys,key_resp_fwd.rt,trials_fwd.thisRepN,trials_fwd.thisTrialN,trials_fwd.thisN,trials_fwd.thisIndex,trials_fwd.ran,digitSpan_fwd,digits_fwd
space,12.8323,zehra,001,03-22-2023_12h31.16.312,Digit Span Task,2022.2.5,Win32,60.21194605,,,,,,,,,,,,,,,,,,,,,,,,,,
,,zehra,001,03-22-2023_12h31.16.312,Digit Span Task,2022.2.5,Win32,60.21194605,space,1.6221,,,,,,,,,,,,,,,,,,,,,,,,
,,zehra,001,03-22-2023_12h31.16.312,Digit Span Task,2022.2.5,Win32,60.21194605,,,615,1,return,3.4669,0,0,0,0,1,3,516,615,,,,,,,,,,,,
,,zehra,001,03-22-2023_12h31.16.312,Digit Span Task,2022.2.5,Win32,60.21194605,,,972,1,return,1.3017,0,1,1,1,1,3,279,972,,,,,,,,,,,,
,,zehra,001,03-22-2023_12h31.16.312,Digit Span Task,2022.2.5,Win32,60.21194605,,,2703,1,return,3.0936,0,0,0,0,1,4,3072,2703,,,,,,,,,,,,
,,zehra,001,03-22-2023_12h31.16.312,Digit Span Task,2022.2.5,Win32,60.21194605,,,1945,1,return,2.964,0,1,1,1,1,4,5491,1945,,,,,,,,,,,,
,,zehra,001,03-22-2023_12h31.16.312,Digit Span Task,2022.2.5,Win32,60.21194605,,,21941,1,return,2.7219,0,0,0,0,1,5,14912,21941,,,,,,,,,,,,
,,zehra,001,03-22-2023_12h31.16.312,Digit Span Task,2022.2.5,Win32,60.21194605,,,53506,1,return,7.1776,0,1,1,1,1,5,60535,53506,,,,,,,,,,,,
,,zehra,001,03-22-2023_12h31.16.312,Digit Span Task,2022.2.5,Win32,60.21194605,,,846039,1,return,4.8968,0,0,0,0,1,6,930648,846039,,,,,,,,,,,,
,,zehra,001,03-22-2023_12h31.16.312,Digit Span Task,2022.2.5,Win32,60.21194605,,,903971,1,return,5.6814,0,1,1,1,1,6,179309,903971,,,,,,,,,,,,
,,zehra,001,03-22-2023_12h31.16.312,Digit Span Task,2022.2.5,Win32,60.21194605,,,532894,0,return,4.2836,0,0,0,0,1,7,4498235,5328944,,,,,,,,,,,,
,,zehra,001,03-22-2023_12h31.16.312,Digit Span Task,2022.2.5,Win32,60.21194605,,,1734452,1,return,5.3386,0,1,1,1,1,7,2544371,1734452,,,,,,,,,,,,
,,zehra,001,03-22-2023_12h31.16.312,Digit Span Task,2022.2.5,Win32,60.21194605,,,5805736,1,return,5.648,0,2,2,2,1,7,6375085,5805736,,,,,,,,,,,,
,,zehra,001,03-22-2023_12h31.16.312,Digit Span Task,2022.2.5,Win32,60.21194605,,,8092264,0,return,9.9382,0,0,0,0,1,8,46229408,80492264,,,,,,,,,,,,
,,zehra,001,03-22-2023_12h31.16.312,Digit Span Task,2022.2.5,Win32,60.21194605,,,28876907,1,return,8.0475,0,1,1,1,1,8,70967882,28876907,,,,,,,,,,,,
,,zehra,001,03-22-2023_12h31.16.312,Digit Span Task,2022.2.5,Win32,60.21194605,,,32390172,1,return,6.1513,0,2,2,2,1,8,27109323,32390172,,,,,,,,,,,,
,,zehra,001,03-22-2023_12h31.16.312,Digit Span Task,2022.2.5,Win32,60.21194605,,,244373047,0,return,5.5064,0,0,0,0,1,9,368373442,244373863,,,,,,,,,,,,
,,zehra,001,03-22-2023_12h31.16.312,Digit Span Task,2022.2.5,Win32,60.21194605,,,919072675,1,return,6.2825,0,1,1,1,1,9,576270919,919072675,,,,,,,,,,,,
,,zehra,001,03-22-2023_12h31.16.312,Digit Span Task,2022.2.5,Win32,60.21194605,,,759556886,1,return,10.4463,0,2,2,2,1,9,688655957,759556886,,,,,,,,,,,,
,,zehra,001,03-22-2023_12h31.16.312,Digit Span Task,2022.2.5,Win32,60.21194605,,,1080092346,1,return,10.408,0,0,0,0,1,10,6432900801,1080092346,,,,,,,,,,,,
,,zehra,001,03-22-2023_12h31.16.312,Digit Span Task,2022.2.5,Win32,60.21194605,,,7298437648,1,return,17.9902,0,1,1,1,1,10,8467348927,7298437648,,,,,,,,,,,,
,,zehra,001,03-22-2023_12h31.16.312,Digit Span Task,2022.2.5,Win32,60.21194605,,,36504709237,1,return,16.698,0,0,0,0,1,11,73290740563,36504709237,,,,,,,,,,,,
,,zehra,001,03-22-2023_12h31.16.312,Digit Span Task,2022.2.5,Win32,60.21194605,,,42227784947,1,return,10.6294,0,1,1,1,1,11,74948772224,42227784947,,,,,,,,,,,,
,,zehra,001,03-22-2023_12h31.16.312,Digit Span Task,2022.2.5,Win32,60.21194605,,,6208186644,0,return,7.309,0,0,0,0,1,12,6.81346E+11,6.28909E+11,,,,,,,,,,,,
,,zehra,001,03-22-2023_12h31.16.312,Digit Span Task,2022.2.5,Win32,60.21194605,,,371487973278,0,return,9.9588,0,1,1,1,1,12,8.7238E+11,3.71857E+11,,,,,,,,,,,,
,,zehra,001,03-22-2023_12h31.16.312,Digit Span Task,2022.2.5,Win32,60.21194605,,,221511207102,0,return,6.7167,0,2,2,2,1,12,2.41072E+11,2.21512E+11,,,,,,,,,,,,
,,zehra,001,03-22-2023_12h31.16.312,Digit Span Task,2022.2.5,Win32,60.21194605,,,,,,,,,,,,,,,,,,,,,,,,,,
,,zehra,001,03-22-2023_12h31.16.312,Digit Span Task,2022.2.5,Win32,60.21194605,,,,,,,,,,,,,,,space,16.8518,,,,,,,,,,
,,zehra,001,03-22-2023_12h31.16.312,Digit Span Task,2022.2.5,Win32,60.21194605,,,,1,,,,,,,,,,,,,801,return,2.4051,0,0,0,0,1,3,801
,,zehra,001,03-22-2023_12h31.16.312,Digit Span Task,2022.2.5,Win32,60.21194605,,,,0,,,,,,,,,,,,,127,return,1.7456,0,1,1,1,1,3,627
,,zehra,001,03-22-2023_12h31.16.312,Digit Span Task,2022.2.5,Win32,60.21194605,,,,1,,,,,,,,,,,,,492,return,1.766,0,2,2,2,1,3,492
,,zehra,001,03-22-2023_12h31.16.312,Digit Span Task,2022.2.5,Win32,60.21194605,,,,1,,,,,,,,,,,,,5286,return,2.6505,0,0,0,0,1,4,5286
,,zehra,001,03-22-2023_12h31.16.312,Digit Span Task,2022.2.5,Win32,60.21194605,,,,1,,,,,,,,,,,,,39624,return,4.2818,0,0,0,0,1,5,39624
,,zehra,001,03-22-2023_12h31.16.312,Digit Span Task,2022.2.5,Win32,60.21194605,,,,1,,,,,,,,,,,,,80996,return,5.485,0,1,1,1,1,5,80996
,,zehra,001,03-22-2023_12h31.16.312,Digit Span Task,2022.2.5,Win32,60.21194605,,,,0,,,,,,,,,,,,,83012,return,7.0293,0,0,0,0,1,6,730142
,,zehra,001,03-22-2023_12h31.16.312,Digit Span Task,2022.2.5,Win32,60.21194605,,,,1,,,,,,,,,,,,,179390,return,3.33,0,1,1,1,1,6,179390
,,zehra,001,03-22-2023_12h31.16.312,Digit Span Task,2022.2.5,Win32,60.21194605,,,,1,,,,,,,,,,,,,229658,return,5.3136,0,2,2,2,1,6,229658
,,zehra,001,03-22-2023_12h31.16.312,Digit Span Task,2022.2.5,Win32,60.21194605,,,,0,,,,,,,,,,,,,717929,return,2.6653,0,0,0,0,1,7,3387235
,,zehra,001,03-22-2023_12h31.16.312,Digit Span Task,2022.2.5,Win32,60.21194605,,,,0,,,,,,,,,,,,,25244261,return,4.4654,0,1,1,1,1,7,2544261
,,zehra,001,03-22-2023_12h31.16.312,Digit Span Task,2022.2.5,Win32,60.21194605,,,,1,,,,,,,,,,,,,1305085,return,9.3134,0,2,2,2,1,7,1305085
,,zehra,001,03-22-2023_12h31.16.312,Digit Span Task,2022.2.5,Win32,60.21194605,,,,1,,,,,,,,,,,,,46226408,return,8.2626,0,0,0,0,1,8,46226408
,,zehra,001,03-22-2023_12h31.16.312,Digit Span Task,2022.2.5,Win32,60.21194605,,,,0,,,,,,,,,,,,,361873802,return,8.9803,0,0,0,0,1,9,361373842
,,zehra,001,03-22-2023_12h31.16.312,Digit Span Task,2022.2.5,Win32,60.21194605,,,,0,,,,,,,,,,,,,470276458,return,10.8287,0,1,1,1,1,9,570270919
,,zehra,001,03-22-2023_12h31.16.312,Digit Span Task,2022.2.5,Win32,60.21194605,,,,0,,,,,,,,,,,,,688755807,return,6.5965,0,2,2,2,1,9,688655257
,,zehra,001,03-22-2023_12h31.16.312,Digit Span Task,2022.2.5,Win32,60.21194605,,,,,,,,,,,,,,,,,,,,,,,,,,
