instructions.started,instructions.stopped,key_resp.keys,key_resp.rt,key_resp.duration,mouse.x,mouse.y,mouse.leftButton,mouse.midButton,mouse.rightButton,mouse.time,participant,session,date,expName,psychopyVersion,OS,frameRate,ISI.started,positions,ISI.stopped,corsi_present.started,corsi_present.stopped,block_sequence.thisRepN,block_sequence.thisTrialN,block_sequence.thisN,block_sequence.thisIndex,block_sequence.ran,corsi_respond.started,corsi_respond.stopped,corsi_mouse.x,corsi_mouse.y,corsi_mouse.leftButton,corsi_mouse.midButton,corsi_mouse.rightButton,corsi_mouse.time,corsi_mouse.clicked_name,correct_list,corsi_correct,feedback.started,feedback.stopped,corsi_task.thisRepN,corsi_task.thisTrialN,corsi_task.thisN,corsi_task.thisIndex,corsi_task.ran,corsi_task.order,block_sequence.order
9.99999E-05,17.8392,space,17.8302,,,,,,,,049113,001,2024-02-01_12h28.13.835,corsi_blocks,2023.2.2,Win32,59.17159763,,,,,,,,,,,,,,,,,,,,,,,,,,,,,,
,,,,,,,,,,,049113,001,2024-02-01_12h28.13.835,corsi_blocks,2023.2.2,Win32,59.17159763,17.8476,"[[-0.4075,0.11875],[-0.35125,0.36625],[0.57875,-0.31375],[-0.09875,0.065],[-0.55125,-0.13375],[0.25625,0.0975],[0.54,0.03625],[-0.285,-0.27125],[-0.45875,-0.3]]",18.346,18.3472,18.8479,0,0,0,0,1,,,,,,,,,,,,,,,,,,,,
,,,,,,,,,,,049113,001,2024-02-01_12h28.13.835,corsi_blocks,2023.2.2,Win32,59.17159763,,,,18.8484,19.3493,1,0,1,0,1,,,,,,,,,,,,,,,,,,,,
,,,,,,,,,,,049113,001,2024-02-01_12h28.13.835,corsi_blocks,2023.2.2,Win32,59.17159763,,,,19.3497,19.8508,2,0,2,0,1,,,,,,,,,,,,,,,,,,,,
,,,,,,,,,,,049113,001,2024-02-01_12h28.13.835,corsi_blocks,2023.2.2,Win32,59.17159763,,,,,,,,,,,19.8514,27.2819,"[-0.4074074074074074,-0.362962962962963,0.5962962962962963,0.5027777777777778]","[0.08981481481481482,0.3277777777777778,-0.28703703703703703,-0.3962962962962963]","[1,1,1,1]","[0,0,0,0]","[0,0,0,0]","[4.7647999999523165,5.817999999999998,6.503699999928479,7.429099999904636]","[""blk1"",""blk2"",""blk3""]","[1,1,1]",1,27.2822,28.2794,0,0,0,0,1,,
,,,,,,,,,,,049113,001,2024-02-01_12h28.13.835,corsi_blocks,2023.2.2,Win32,59.17159763,28.2799,"[[0.30125,-0.0175],[-0.45875,-0.3],[-0.18625,0.41125],[-0.12125,-0.12625],[0.4625,0.35875],[-0.4075,0.11875],[0.16625,0.3825],[-0.68625,-0.225],[0.0675,0.07375]]",28.7809,28.7816,29.2826,0,0,0,0,1,,,,,,,,,,,,,,,,,,,,
,,,,,,,,,,,049113,001,2024-02-01_12h28.13.835,corsi_blocks,2023.2.2,Win32,59.17159763,,,,29.2829,29.7842,1,0,1,0,1,,,,,,,,,,,,,,,,,,,,
,,,,,,,,,,,049113,001,2024-02-01_12h28.13.835,corsi_blocks,2023.2.2,Win32,59.17159763,,,,29.7844,30.286,2,0,2,0,1,,,,,,,,,,,,,,,,,,,,
,,,,,,,,,,,049113,001,2024-02-01_12h28.13.835,corsi_blocks,2023.2.2,Win32,59.17159763,,,,30.2863,30.7879,3,0,3,0,1,,,,,,,,,,,,,,,,,,,,
,,,,,,,,,,,049113,001,2024-02-01_12h28.13.835,corsi_blocks,2023.2.2,Win32,59.17159763,,,,,,,,,,,30.7879,34.7343,"[0.3037037037037037,-0.4287037037037037,-0.13425925925925927,-0.2037037037037037,0.5212962962962963]","[-0.03518518518518519,-0.2833333333333333,-0.13055555555555556,0.4305555555555556,-0.3851851851851852]","[1,1,1,1,1]","[0,0,0,0,0]","[0,0,0,0,0]","[1.353500000000004,1.9893999999761576,2.6415000000000006,3.2603999999761584,3.945599999904637]","[""blk1"",""blk2"",""blk4"",""blk3""]","[1,1,0,0]",0,34.7347,35.7377,1,0,1,0,1,,
,,,,,,,,,,,049113,001,2024-02-01_12h28.13.835,corsi_blocks,2023.2.2,Win32,59.17159763,35.7379,"[[-0.09875,0.065],[0.0675,0.07375],[0.54,0.03625],[-0.16125,-0.28],[-0.285,-0.27125],[-0.45875,-0.3],[-0.485,0.34625],[0.22,0.2425],[-0.26625,0.235]]",36.2393,36.2402,36.7412,0,0,0,0,1,,,,,,,,,,,,,,,,,,,,
,,,,,,,,,,,049113,001,2024-02-01_12h28.13.835,corsi_blocks,2023.2.2,Win32,59.17159763,,,,36.7418,37.2427,1,0,1,0,1,,,,,,,,,,,,,,,,,,,,
,,,,,,,,,,,049113,001,2024-02-01_12h28.13.835,corsi_blocks,2023.2.2,Win32,59.17159763,,,,37.2429,37.7445,2,0,2,0,1,,,,,,,,,,,,,,,,,,,,
,,,,,,,,,,,049113,001,2024-02-01_12h28.13.835,corsi_blocks,2023.2.2,Win32,59.17159763,,,,37.7448,38.2462,3,0,3,0,1,,,,,,,,,,,,,,,,,,,,
,,,,,,,,,,,049113,001,2024-02-01_12h28.13.835,corsi_blocks,2023.2.2,Win32,59.17159763,,,,,,,,,,,38.2464,41.8921,"[-0.08148148148148149,0.08055555555555556,0.49722222222222223,-0.16574074074074074,0.4324074074074074,0.4981481481481482]","[0.02962962962962963,0.05092592592592592,0.025,-0.28425925925925927,-0.36944444444444446,-0.4101851851851852]","[1,1,1,1,1,1]","[0,0,0,0,0,0]","[0,0,0,0,0,0]","[0.4841000000238438,1.069499999999998,1.4874000000953629,2.156500000000001,2.7749000000953643,3.644700000047685]","[""blk1"",""blk2"",""blk3"",""blk4""]","[1,1,1,1]",1,41.8924,42.8953,2,0,2,0,1,,
,,,,,,,,,,,049113,001,2024-02-01_12h28.13.835,corsi_blocks,2023.2.2,Win32,59.17159763,42.8955,"[[-0.6025,0.0725],[0.19375,-0.17125],[0.6375,0.27375],[-0.55125,-0.13375],[0.45375,0.175],[-0.16125,-0.28],[0.28875,0.39875],[0.22,0.2425],[0.03125,-0.41]]",43.397,43.3978,43.8988,0,0,0,0,1,,,,,,,,,,,,,,,,,,,,
,,,,,,,,,,,049113,001,2024-02-01_12h28.13.835,corsi_blocks,2023.2.2,Win32,59.17159763,,,,43.8993,44.4003,1,0,1,0,1,,,,,,,,,,,,,,,,,,,,
,,,,,,,,,,,049113,001,2024-02-01_12h28.13.835,corsi_blocks,2023.2.2,Win32,59.17159763,,,,44.4006,44.9021,2,0,2,0,1,,,,,,,,,,,,,,,,,,,,
,,,,,,,,,,,049113,001,2024-02-01_12h28.13.835,corsi_blocks,2023.2.2,Win32,59.17159763,,,,44.9025,45.3925,3,0,3,0,1,,,,,,,,,,,,,,,,,,,,
,,,,,,,,,,,049113,001,2024-02-01_12h28.13.835,corsi_blocks,2023.2.2,Win32,59.17159763,,,,45.3926,45.8888,4,0,4,0,1,,,,,,,,,,,,,,,,,,,,
,,,,,,,,,,,049113,001,2024-02-01_12h28.13.835,corsi_blocks,2023.2.2,Win32,59.17159763,,,,,,,,,,,45.8889,51.0618,"[-0.5814814814814815,0.16111111111111112,0.6157407407407407,-0.5046296296296297,0.49074074074074076,0.5027777777777778,0.5046296296296297]","[0.049074074074074076,-0.13148148148148148,0.262037037037037,-0.1537037037037037,0.175,-0.3712962962962963,-0.3962962962962963]","[1,1,1,1,1,1,1]","[0,0,0,0,0,0,0]","[0,0,0,0,0,0,0]","[0.7349000000953652,1.3537000000476809,2.156100000023841,2.875300000071526,3.711600000023843,4.447300000071529,5.172100000023839]","[""blk1"",""blk2"",""blk3"",""blk4"",""blk5""]","[1,1,1,1,1]",1,51.0621,52.0595,3,0,3,0,1,,
,,,,,,,,,,,049113,001,2024-02-01_12h28.13.835,corsi_blocks,2023.2.2,Win32,59.17159763,52.0597,"[[-0.01875,0.235],[0.0675,0.07375],[-0.12125,-0.12625],[-0.18625,0.41125],[-0.3575,-0.05625],[0.16625,0.3825],[-0.285,-0.27125],[0.28875,0.39875],[-0.0225,0.395]]",52.5611,52.5619,53.0627,0,0,0,0,1,,,,,,,,,,,,,,,,,,,,
,,,,,,,,,,,049113,001,2024-02-01_12h28.13.835,corsi_blocks,2023.2.2,Win32,59.17159763,,,,53.0629,53.5646,1,0,1,0,1,,,,,,,,,,,,,,,,,,,,
,,,,,,,,,,,049113,001,2024-02-01_12h28.13.835,corsi_blocks,2023.2.2,Win32,59.17159763,,,,53.5647,,2,0,2,0,1,,,,,,,,,,,,,,4,0,4,0,1,999,5