instructions.started,instructions.stopped,key_resp.keys,key_resp.rt,key_resp.duration,mouse.x,mouse.y,mouse.leftButton,mouse.midButton,mouse.rightButton,mouse.time,participant,session,date,expName,psychopyVersion,OS,frameRate,ISI.started,positions,ISI.stopped,corsi_present.started,corsi_present.stopped,block_sequence.thisRepN,block_sequence.thisTrialN,block_sequence.thisN,block_sequence.thisIndex,block_sequence.ran,corsi_respond.started,corsi_respond.stopped,corsi_mouse.x,corsi_mouse.y,corsi_mouse.leftButton,corsi_mouse.midButton,corsi_mouse.rightButton,corsi_mouse.time,corsi_mouse.clicked_name,correct_list,corsi_correct,feedback.started,feedback.stopped,corsi_task.thisRepN,corsi_task.thisTrialN,corsi_task.thisN,corsi_task.thisIndex,corsi_task.ran
0.0003,8.576,space,8.5499,,,,,,,,104338,001,2024-02-19_14h52.29.306,corsi_blocks,2023.2.2,MacIntel,60.97560976,,,,,,,,,,,,,,,,,,,,,,,,,,,,
,,,,,,,,,,,104338,001,2024-02-19_14h52.29.306,corsi_blocks,2023.2.2,MacIntel,60.97560976,8.5922,"[[-0.4075,0.11875],[-0.675,0.29875],[-0.68625,-0.225],[-0.6025,0.0725],[0.45375,0.175],[-0.285,-0.27125],[0.4625,0.35875],[0.1925,-0.295],[0.365,-0.27625]]",9.0793,9.081,9.5786,0,0,0,0,1,,,,,,,,,,,,,,,,,,
,,,,,,,,,,,104338,001,2024-02-19_14h52.29.306,corsi_blocks,2023.2.2,MacIntel,60.97560976,,,,9.5793,10.077,1,0,1,0,1,,,,,,,,,,,,,,,,,,
,,,,,,,,,,,104338,001,2024-02-19_14h52.29.306,corsi_blocks,2023.2.2,MacIntel,60.97560976,,,,10.0775,10.5757,2,0,2,0,1,,,,,,,,,,,,,,,,,,
,,,,,,,,,,,104338,001,2024-02-19_14h52.29.306,corsi_blocks,2023.2.2,MacIntel,60.97560976,,,,,,,,,,,10.5762,15.2303,"[-0.39602898491753474,-0.6447225782606337,-0.672771708170573,0.4829763454861111]","[0.09429836697048612,0.27147093031141495,-0.18382520887586806,-0.38787007649739585]","[1,1,1,1]","[0,0,0,0]","[0,0,0,0]","[1.2554000000003747,2.055900000000374,2.8184000000003753,4.64580000000028]","[""blk1"",""blk2"",""blk3""]","[1,1,1]",1,15.2316,16.2278,0,0,0,0,1
,,,,,,,,,,,104338,001,2024-02-19_14h52.29.306,corsi_blocks,2023.2.2,MacIntel,60.97560976,16.2282,"[[0.16625,0.3825],[-0.675,0.29875],[-0.485,0.34625],[0.62875,-0.1825],[-0.01125,-0.295],[0.0675,0.07375],[0.54,0.03625],[0.05875,-0.0575],[-0.35125,0.36625]]",16.7268,16.7286,17.2255,0,0,0,0,1,,,,,,,,,,,,,,,,,,
,,,,,,,,,,,104338,001,2024-02-19_14h52.29.306,corsi_blocks,2023.2.2,MacIntel,60.97560976,,,,17.2259,17.7252,1,0,1,0,1,,,,,,,,,,,,,,,,,,
,,,,,,,,,,,104338,001,2024-02-19_14h52.29.306,corsi_blocks,2023.2.2,MacIntel,60.97560976,,,,17.7256,18.2234,2,0,2,0,1,,,,,,,,,,,,,,,,,,
,,,,,,,,,,,104338,001,2024-02-19_14h52.29.306,corsi_blocks,2023.2.2,MacIntel,60.97560976,,,,18.2238,18.7217,3,0,3,0,1,,,,,,,,,,,,,,,,,,
,,,,,,,,,,,104338,001,2024-02-19_14h52.29.306,corsi_blocks,2023.2.2,MacIntel,60.97560976,,,,,,,,,,,18.7219,23.0772,"[0.167169189453125,-0.6412767028808594,-0.5157914055718316,0.6011691623263888,0.5004056803385417]","[0.41057902018229164,0.29457144843207467,0.3253463914659288,-0.19018181694878472,-0.4198973931206597]","[1,1,1,1,1]","[0,0,0,0,0]","[0,0,0,0,0]","[0.9508999999999048,1.9612000000001863,2.5595,3.607899999999905,4.354100000000091]","[""blk1"",""blk2"",""blk3"",""blk4""]","[1,1,1,1]",1,23.0776,24.0745,1,0,1,0,1
,,,,,,,,,,,104338,001,2024-02-19_14h52.29.306,corsi_blocks,2023.2.2,MacIntel,60.97560976,24.0747,"[[0.62875,-0.1825],[-0.485,0.34625],[-0.09875,0.065],[-0.45875,-0.3],[-0.3575,-0.05625],[0.22,0.2425],[0.57875,-0.31375],[-0.26625,0.235],[0.45375,0.175]]",24.5736,24.5759,25.0732,0,0,0,0,1,,,,,,,,,,,,,,,,,,
,,,,,,,,,,,104338,001,2024-02-19_14h52.29.306,corsi_blocks,2023.2.2,MacIntel,60.97560976,,,,25.0737,25.5713,1,0,1,0,1,,,,,,,,,,,,,,,,,,
,,,,,,,,,,,104338,001,2024-02-19_14h52.29.306,corsi_blocks,2023.2.2,MacIntel,60.97560976,,,,25.5726,26.069,2,0,2,0,1,,,,,,,,,,,,,,,,,,
,,,,,,,,,,,104338,001,2024-02-19_14h52.29.306,corsi_blocks,2023.2.2,MacIntel,60.97560976,,,,26.0694,26.5687,3,0,3,0,1,,,,,,,,,,,,,,,,,,
,,,,,,,,,,,104338,001,2024-02-19_14h52.29.306,corsi_blocks,2023.2.2,MacIntel,60.97560976,,,,26.5695,27.0674,4,0,4,0,1,,,,,,,,,,,,,,,,,,
,,,,,,,,,,,104338,001,2024-02-19_14h52.29.306,corsi_blocks,2023.2.2,MacIntel,60.97560976,,,,,,,,,,,27.0675,33.253,"[0.6476707628038194,-0.4996891954210069,-0.13983242458767361,-0.46738844129774304,-0.3730557590060764,0.46527208116319446]","[-0.16059699164496527,0.340804935031467,0.07449937608506944,-0.2833333333333333,-0.07142666286892362,-0.390838623046875]","[1,1,1,1,1,1]","[0,0,0,0,0,0]","[0,0,0,0,0,0]","[1.1635999999996258,2.277799999999811,3.2256999999997156,4.089299999999806,4.7869999999999955,6.184399999999901]","[""blk1"",""blk2"",""blk3"",""blk4"",""blk5""]","[1,1,1,1,1]",1,33.2538,34.2498,2,0,2,0,1
,,,,,,,,,,,104338,001,2024-02-19_14h52.29.306,corsi_blocks,2023.2.2,MacIntel,60.97560976,34.2512,"[[-0.12125,-0.12625],[-0.285,-0.27125],[0.1925,-0.295],[0.54,0.03625],[-0.45875,-0.3],[-0.24625,0.04375],[0.28875,0.39875],[-0.68625,-0.225],[0.05875,-0.0575]]",34.7496,34.7511,35.2469,0,0,0,0,1,,,,,,,,,,,,,,,,,,
,,,,,,,,,,,104338,001,2024-02-19_14h52.29.306,corsi_blocks,2023.2.2,MacIntel,60.97560976,,,,35.2474,35.7459,1,0,1,0,1,,,,,,,,,,,,,,,,,,
,,,,,,,,,,,104338,001,2024-02-19_14h52.29.306,corsi_blocks,2023.2.2,MacIntel,60.97560976,,,,35.7464,36.2458,2,0,2,0,1,,,,,,,,,,,,,,,,,,
,,,,,,,,,,,104338,001,2024-02-19_14h52.29.306,corsi_blocks,2023.2.2,MacIntel,60.97560976,,,,36.2462,36.7431,3,0,3,0,1,,,,,,,,,,,,,,,,,,
,,,,,,,,,,,104338,001,2024-02-19_14h52.29.306,corsi_blocks,2023.2.2,MacIntel,60.97560976,,,,36.7435,37.2421,4,0,4,0,1,,,,,,,,,,,,,,,,,,
,,,,,,,,,,,104338,001,2024-02-19_14h52.29.306,corsi_blocks,2023.2.2,MacIntel,60.97560976,,,,37.2426,37.7402,5,0,5,0,1,,,,,,,,,,,,,,,,,,
,,,,,,,,,,,104338,001,2024-02-19_14h52.29.306,corsi_blocks,2023.2.2,MacIntel,60.97560976,,,,,,,,,,,37.7403,44.0591,"[-0.11910997178819445,-0.26875962999131947,0.19583116319444444,0.5245103624131945,-0.4543860202365451,-0.25866461859809026,0.5154574924045139]","[-0.13304517957899306,-0.27644354926215275,-0.2928561062282986,0.02993679470486111,-0.2999957275390625,0.0027421739366319444,-0.39524644639756945]","[1,1,1,1,1,1,1]","[0,0,0,0,0,0,0]","[0,0,0,0,0,0,0]","[0.7809999999999988,1.4959999999999951,2.4093999999999056,3.2907999999998125,4.206299999999814,5.169099999999624,6.3174999999999955]","[""blk1"",""blk2"",""blk3"",""blk4"",""blk5"",""blk6""]","[1,1,1,1,1,1]",1,44.0594,45.0546,3,0,3,0,1
,,,,,,,,,,,104338,001,2024-02-19_14h52.29.306,corsi_blocks,2023.2.2,MacIntel,60.97560976,45.055,"[[0.16625,0.3825],[0.4125,-0.1325],[-0.68625,-0.225],[-0.45875,-0.3],[0.19375,-0.17125],[0.6375,0.27375],[-0.12125,-0.12625],[-0.285,-0.27125],[-0.01875,0.235]]",45.5541,45.5548,46.0535,0,0,0,0,1,,,,,,,,,,,,,,,,,,
,,,,,,,,,,,104338,001,2024-02-19_14h52.29.306,corsi_blocks,2023.2.2,MacIntel,60.97560976,,,,46.054,46.551,1,0,1,0,1,,,,,,,,,,,,,,,,,,
,,,,,,,,,,,104338,001,2024-02-19_14h52.29.306,corsi_blocks,2023.2.2,MacIntel,60.97560976,,,,46.5515,47.0499,2,0,2,0,1,,,,,,,,,,,,,,,,,,
,,,,,,,,,,,104338,001,2024-02-19_14h52.29.306,corsi_blocks,2023.2.2,MacIntel,60.97560976,,,,47.0504,47.5493,3,0,3,0,1,,,,,,,,,,,,,,,,,,
,,,,,,,,,,,104338,001,2024-02-19_14h52.29.306,corsi_blocks,2023.2.2,MacIntel,60.97560976,,,,47.5498,48.0483,4,0,4,0,1,,,,,,,,,,,,,,,,,,
,,,,,,,,,,,104338,001,2024-02-19_14h52.29.306,corsi_blocks,2023.2.2,MacIntel,60.97560976,,,,48.0489,48.5469,5,0,5,0,1,,,,,,,,,,,,,,,,,,
,,,,,,,,,,,104338,001,2024-02-19_14h52.29.306,corsi_blocks,2023.2.2,MacIntel,60.97560976,,,,48.5473,49.0451,6,0,6,0,1,,,,,,,,,,,,,,,,,,
,,,,,,,,,,,104338,001,2024-02-19_14h52.29.306,corsi_blocks,2023.2.2,MacIntel,60.97560976,,,,,,,,,,,49.0454,56.3788,"[0.152198486328125,0.4261702473958333,-0.6410350714789497,-0.4673580593532986,0.6434865993923611,-0.2662749565972222,0.17445868598090278,0.4772998046875]","[0.4055179680718316,-0.14922037760416668,-0.23527058919270832,-0.3167510308159722,0.25970806545681424,-0.25438368055555555,-0.17909539116753473,-0.39150987413194444]","[1,1,1,1,1,1,1,1]","[0,0,0,0,0,0,0,0]","[0,0,0,0,0,0,0,0]","[1.2038000000002853,2.1613000000002813,3.0917000000001877,3.6888999999999115,4.487000000000002,5.5015,6.51620000000019,7.332100000000096]","[""blk1"",""blk2"",""blk3"",""blk4"",""blk6"",""blk8"",""blk5""]","[1,1,1,1,0,0,0]",0,56.3791,57.375,4,0,4,0,1
,,,,,,,,,,,104338,001,2024-02-19_14h52.29.306,corsi_blocks,2023.2.2,MacIntel,60.97560976,57.376,"[[-0.285,-0.27125],[0.57875,-0.31375],[0.365,-0.27625],[0.0675,0.07375],[-0.24625,0.04375],[0.28875,0.39875],[-0.68625,-0.225],[0.45375,0.175],[-0.45875,-0.3]]",57.8733,57.8742,58.3713,0,0,0,0,1,,,,,,,,,,,,,,,,,,
,,,,,,,,,,,104338,001,2024-02-19_14h52.29.306,corsi_blocks,2023.2.2,MacIntel,60.97560976,,,,58.3719,58.8711,1,0,1,0,1,,,,,,,,,,,,,,,,,,
,,,,,,,,,,,104338,001,2024-02-19_14h52.29.306,corsi_blocks,2023.2.2,MacIntel,60.97560976,,,,58.8717,59.3695,2,0,2,0,1,,,,,,,,,,,,,,,,,,
,,,,,,,,,,,104338,001,2024-02-19_14h52.29.306,corsi_blocks,2023.2.2,MacIntel,60.97560976,,,,59.3701,59.8686,3,0,3,0,1,,,,,,,,,,,,,,,,,,
,,,,,,,,,,,104338,001,2024-02-19_14h52.29.306,corsi_blocks,2023.2.2,MacIntel,60.97560976,,,,59.8692,60.3682,4,0,4,0,1,,,,,,,,,,,,,,,,,,
,,,,,,,,,,,104338,001,2024-02-19_14h52.29.306,corsi_blocks,2023.2.2,MacIntel,60.97560976,,,,60.3685,60.8663,5,0,5,0,1,,,,,,,,,,,,,,,,,,
,,,,,,,,,,,104338,001,2024-02-19_14h52.29.306,corsi_blocks,2023.2.2,MacIntel,60.97560976,,,,60.8667,61.3648,6,0,6,0,1,,,,,,,,,,,,,,,,,,
,,,,,,,,,,,104338,001,2024-02-19_14h52.29.306,corsi_blocks,2023.2.2,MacIntel,60.97560976,,,,,,,,,,,61.365,69.7758,"[-0.2523709784613715,0.6417567274305556,0.5772726779513889,0.4056342230902778,0.06920708550347222,-0.2514841037326389,0.2828774685329861,-0.6591505940755208,0.4186733669704861,0.441212158203125]","[-0.24447998046875,-0.30874009874131947,-0.30874009874131947,-0.26108534071180556,0.03318271213107639,0.024361097547743054,0.3690914577907986,-0.2018130154079861,-0.3595610894097222,-0.3882822672526042]","[1,1,1,1,1,1,1,1,1,1]","[0,0,0,0,0,0,0,0,0,0]","[0,0,0,0,0,0,0,0,0,0]","[0.6629999999999967,1.4606000000000847,1.910199999999719,2.5086000000000865,3.5060000000000002,4.171799999999806,5.317399999999907,6.3338999999999,7.463100000000097,8.409100000000095]","[""blk1"",""blk2"",""blk3"",""blk4"",""blk5"",""blk6"",""blk7""]","[1,1,1,1,1,1,1]",1,69.7762,70.7734,5,0,5,0,1
,,,,,,,,,,,104338,001,2024-02-19_14h52.29.306,corsi_blocks,2023.2.2,MacIntel,60.97560976,70.7737,"[[0.45375,0.175],[-0.01875,0.235],[-0.485,0.34625],[0.4625,0.35875],[0.54,0.03625],[0.30125,-0.0175],[0.03125,-0.41],[0.16625,0.3825],[0.22,0.2425]]",71.2729,71.2741,71.7715,0,0,0,0,1,,,,,,,,,,,,,,,,,,
,,,,,,,,,,,104338,001,2024-02-19_14h52.29.306,corsi_blocks,2023.2.2,MacIntel,60.97560976,,,,71.7718,72.2705,1,0,1,0,1,,,,,,,,,,,,,,,,,,
,,,,,,,,,,,104338,001,2024-02-19_14h52.29.306,corsi_blocks,2023.2.2,MacIntel,60.97560976,,,,72.2709,72.7698,2,0,2,0,1,,,,,,,,,,,,,,,,,,
,,,,,,,,,,,104338,001,2024-02-19_14h52.29.306,corsi_blocks,2023.2.2,MacIntel,60.97560976,,,,72.7703,73.268,3,0,3,0,1,,,,,,,,,,,,,,,,,,
,,,,,,,,,,,104338,001,2024-02-19_14h52.29.306,corsi_blocks,2023.2.2,MacIntel,60.97560976,,,,73.2685,73.7669,4,0,4,0,1,,,,,,,,,,,,,,,,,,
,,,,,,,,,,,104338,001,2024-02-19_14h52.29.306,corsi_blocks,2023.2.2,MacIntel,60.97560976,,,,73.7673,74.2652,5,0,5,0,1,,,,,,,,,,,,,,,,,,
,,,,,,,,,,,104338,001,2024-02-19_14h52.29.306,corsi_blocks,2023.2.2,MacIntel,60.97560976,,,,74.2654,74.7635,6,0,6,0,1,,,,,,,,,,,,,,,,,,
,,,,,,,,,,,104338,001,2024-02-19_14h52.29.306,corsi_blocks,2023.2.2,MacIntel,60.97560976,,,,74.7638,75.2629,7,0,7,0,1,,,,,,,,,,,,,,,,,,
,,,,,,,,,,,104338,001,2024-02-19_14h52.29.306,corsi_blocks,2023.2.2,MacIntel,60.97560976,,,,,,,,,,,75.2631,83.7245,"[0.4281165907118056,-0.011535237630208334,-0.45409206814236114,0.4069038899739583,0.46478379991319446,0.5201832411024305,0.2995376925998264,0.05594930013020833,0.15819417317708334,0.4771413845486111]","[0.16475938585069444,0.2017156982421875,0.32699105156792535,0.34887178209092884,0.3317219712999132,0.022611829969618056,-0.03626295301649306,-0.3998135715060764,0.342552981906467,-0.3898445638020833]","[1,1,1,1,1,1,1,1,1,1]","[0,0,0,0,0,0,0,0,0,0]","[0,0,0,0,0,0,0,0,0,0]","[1.194500000000005,1.8776999999997201,3.107399999999913,3.989100000000093,4.5538999999999135,5.2346999999997195,5.865799999999808,6.581299999999814,7.512699999999725,8.459699999999728]","[""blk1"",""blk2"",""blk3"",""blk4"",""blk5"",""blk6"",""blk7"",""blk8""]","[1,1,1,1,1,1,1,1]",1,83.7249,84.7228,6,0,6,0,1
,,,,,,,,,,,104338,001,2024-02-19_14h52.29.306,corsi_blocks,2023.2.2,MacIntel,60.97560976,84.7232,"[[0.19375,-0.17125],[0.1925,-0.295],[0.25625,0.0975],[0.62875,-0.1825],[-0.68625,-0.225],[0.365,-0.27625],[-0.12125,-0.12625],[0.4625,0.35875],[0.22,0.2425]]",85.2208,85.2219,85.7193,0,0,0,0,1,,,,,,,,,,,,,,,,,,
,,,,,,,,,,,104338,001,2024-02-19_14h52.29.306,corsi_blocks,2023.2.2,MacIntel,60.97560976,,,,85.7198,86.2184,1,0,1,0,1,,,,,,,,,,,,,,,,,,
,,,,,,,,,,,104338,001,2024-02-19_14h52.29.306,corsi_blocks,2023.2.2,MacIntel,60.97560976,,,,86.2188,86.7175,2,0,2,0,1,,,,,,,,,,,,,,,,,,
,,,,,,,,,,,104338,001,2024-02-19_14h52.29.306,corsi_blocks,2023.2.2,MacIntel,60.97560976,,,,86.718,87.2158,3,0,3,0,1,,,,,,,,,,,,,,,,,,
,,,,,,,,,,,104338,001,2024-02-19_14h52.29.306,corsi_blocks,2023.2.2,MacIntel,60.97560976,,,,87.2162,87.7152,4,0,4,0,1,,,,,,,,,,,,,,,,,,
,,,,,,,,,,,104338,001,2024-02-19_14h52.29.306,corsi_blocks,2023.2.2,MacIntel,60.97560976,,,,87.7155,88.2142,5,0,5,0,1,,,,,,,,,,,,,,,,,,
,,,,,,,,,,,104338,001,2024-02-19_14h52.29.306,corsi_blocks,2023.2.2,MacIntel,60.97560976,,,,88.2145,88.7132,6,0,6,0,1,,,,,,,,,,,,,,,,,,
,,,,,,,,,,,104338,001,2024-02-19_14h52.29.306,corsi_blocks,2023.2.2,MacIntel,60.97560976,,,,88.7137,89.2115,7,0,7,0,1,,,,,,,,,,,,,,,,,,
,,,,,,,,,,,104338,001,2024-02-19_14h52.29.306,corsi_blocks,2023.2.2,MacIntel,60.97560976,,,,89.2118,89.7108,8,0,8,0,1,,,,,,,,,,,,,,,,,,
,,,,,,,,,,,104338,001,2024-02-19_14h52.29.306,corsi_blocks,2023.2.2,MacIntel,60.97560976,,,,,,,,,,,89.7109,100.3508,"[0.19025282118055556,0.2057196044921875,0.5606361219618056,0.6541262478298611,-0.6607197062174479,0.35509752061631944,-0.10580186631944444,0.4314851888020833,0.26550374348958333,0.23171251085069444,0.5120956759982639]","[-0.15494778103298612,-0.2551074896918403,-0.1829595947265625,-0.1925467258029514,-0.1916232638888889,-0.2809188503689236,-0.11166558159722222,0.32204159206814237,0.10692464192708333,0.21126363118489583,-0.41062954372829863]","[1,1,1,1,1,1,1,1,1,1,1]","[0,0,0,0,0,0,0,0,0,0,0]","[0,0,0,0,0,0,0,0,0,0,0]","[1.511199999999718,2.09189999999991,2.888999999999996,4.152599999999623,5.094399999999908,6.215599999999625,7.0658999999999,7.828099999999623,8.49369999999972,9.406199999999714,10.637899999999902]","[""blk1"",""blk2"",""blk4"",""blk5"",""blk6"",""blk7"",""blk8"",""blk3"",""blk9""]","[1,1,0,0,0,0,0,0,1]",0,100.3516,101.3472,7,0,7,0,1
,,,,,,,,,,,104338,001,2024-02-19_14h52.29.306,corsi_blocks,2023.2.2,MacIntel,60.97560976,101.348,"[[-0.45875,-0.3],[0.05875,-0.0575],[-0.24625,0.04375],[0.1925,-0.295],[0.6375,0.27375],[-0.485,0.34625],[-0.16125,-0.28],[0.54,0.03625],[0.365,-0.27625]]",101.8469,101.8479,102.3447,0,0,0,0,1,,,,,,,,,,,,,,,,,,
,,,,,,,,,,,104338,001,2024-02-19_14h52.29.306,corsi_blocks,2023.2.2,MacIntel,60.97560976,,,,102.3452,102.8443,1,0,1,0,1,,,,,,,,,,,,,,,,,,
,,,,,,,,,,,104338,001,2024-02-19_14h52.29.306,corsi_blocks,2023.2.2,MacIntel,60.97560976,,,,102.8446,103.3433,2,0,2,0,1,,,,,,,,,,,,,,,,,,
,,,,,,,,,,,104338,001,2024-02-19_14h52.29.306,corsi_blocks,2023.2.2,MacIntel,60.97560976,,,,103.3436,103.8423,3,0,3,0,1,,,,,,,,,,,,,,,,,,
,,,,,,,,,,,104338,001,2024-02-19_14h52.29.306,corsi_blocks,2023.2.2,MacIntel,60.97560976,,,,103.8426,104.3399,4,0,4,0,1,,,,,,,,,,,,,,,,,,
,,,,,,,,,,,104338,001,2024-02-19_14h52.29.306,corsi_blocks,2023.2.2,MacIntel,60.97560976,,,,104.3404,105.8496,5,0,5,0,1,,,,,,,,,,,,,,,,,,
,,,,,,,,,,,104338,001,2024-02-19_14h52.29.306,corsi_blocks,2023.2.2,MacIntel,60.97560976,,,,105.8499,105.8506,6,0,6,0,1,,,,,,,,,,,,,,,,,,
,,,,,,,,,,,104338,001,2024-02-19_14h52.29.306,corsi_blocks,2023.2.2,MacIntel,60.97560976,,,,105.8508,105.8721,7,0,7,0,1,,,,,,,,,,,,,,,,,,
,,,,,,,,,,,104338,001,2024-02-19_14h52.29.306,corsi_blocks,2023.2.2,MacIntel,60.97560976,,,,105.8726,105.903,8,0,8,0,1,,,,,,,,,,,,,,,,,,