instructions.started,instructions.stopped,key_resp.keys,mouse.x,mouse.y,mouse.leftButton,mouse.midButton,mouse.rightButton,mouse.time,participant,session,date,expName,psychopyVersion,OS,frameRate,ISI.started,positions,ISI.stopped,corsi_present.started,corsi_present.stopped,block_sequence.thisRepN,block_sequence.thisTrialN,block_sequence.thisN,block_sequence.thisIndex,block_sequence.ran,corsi_respond.started,corsi_respond.stopped,corsi_mouse.x,corsi_mouse.y,corsi_mouse.leftButton,corsi_mouse.midButton,corsi_mouse.rightButton,corsi_mouse.time,corsi_mouse.clicked_name,correct_list,corsi_correct,feedback.started,feedback.stopped,corsi_task.thisRepN,corsi_task.thisTrialN,corsi_task.thisN,corsi_task.thisIndex,corsi_task.ran
0,0.996,,0.002343774,-0.130468786,1,0,0,0.9943,111952,001,2024-02-24_22h11.07.870,corsi_blocks,2023.2.2,Win32,29.85074627,,,,,,,,,,,,,,,,,,,,,,,,,,,,
,,,,,,,,,111952,001,2024-02-24_22h11.07.870,corsi_blocks,2023.2.2,Win32,29.85074627,1.0041,"[[0.0675,0.07375],[0.28875,0.39875],[-0.675,0.29875],[0.30125,-0.0175],[-0.285,-0.27125],[0.1925,-0.295],[-0.16125,-0.28],[0.03125,-0.41],[-0.35125,0.36625]]",1.4963,1.4981,1.9959,0,0,0,0,1,,,,,,,,,,,,,,,,,,
,,,,,,,,,111952,001,2024-02-24_22h11.07.870,corsi_blocks,2023.2.2,Win32,29.85074627,,,,1.9965,2.4961,1,0,1,0,1,,,,,,,,,,,,,,,,,,
,,,,,,,,,111952,001,2024-02-24_22h11.07.870,corsi_blocks,2023.2.2,Win32,29.85074627,,,,2.4967,2.9964,2,0,2,0,1,,,,,,,,,,,,,,,,,,
,,,,,,,,,111952,001,2024-02-24_22h11.07.870,corsi_blocks,2023.2.2,Win32,29.85074627,,,,,,,,,,,2.9967,6.5301,"[0.06328123807907104,0.2796875238418579,-0.6804687455296516,0.5046875476837158]","[0.07265624403953552,0.38593749701976776,0.3179687410593033,-0.40312498807907104]","[1,1,1,1]","[0,0,0,0]","[0,0,0,0]","[0.5978999999999068,1.397499999999999,2.2647999999998127,3.5312999999998134]","[""blk1"",""blk2"",""blk3""]","[1,1,1]",1,6.5306,7.5293,0,0,0,0,1
,,,,,,,,,111952,001,2024-02-24_22h11.07.870,corsi_blocks,2023.2.2,Win32,29.85074627,7.5298,"[[0.30125,-0.0175],[0.1925,-0.295],[-0.12125,-0.12625],[-0.35125,0.36625],[-0.6025,0.0725],[0.28875,0.39875],[-0.45875,-0.3],[-0.3575,-0.05625],[-0.01125,-0.295]]",8.029,8.03,8.5292,0,0,0,0,1,,,,,,,,,,,,,,,,,,
,,,,,,,,,111952,001,2024-02-24_22h11.07.870,corsi_blocks,2023.2.2,Win32,29.85074627,,,,8.5298,9.0293,1,0,1,0,1,,,,,,,,,,,,,,,,,,
,,,,,,,,,111952,001,2024-02-24_22h11.07.870,corsi_blocks,2023.2.2,Win32,29.85074627,,,,9.0299,9.529,2,0,2,0,1,,,,,,,,,,,,,,,,,,
,,,,,,,,,111952,001,2024-02-24_22h11.07.870,corsi_blocks,2023.2.2,Win32,29.85074627,,,,9.5296,10.0292,3,0,3,0,1,,,,,,,,,,,,,,,,,,
,,,,,,,,,111952,001,2024-02-24_22h11.07.870,corsi_blocks,2023.2.2,Win32,29.85074627,,,,,,,,,,,10.0295,14.263,"[0.3054687976837158,0.1937500238418579,-0.1499999761581421,-0.3375000059604645,0.5140625238418579]","[-0.028906285762786865,-0.27656251192092896,-0.09843748807907104,0.38671875,-0.38359373807907104]","[1,1,1,1,1]","[0,0,0,0,0]","[0,0,0,0,0]","[0.8322000000001868,1.5651000000000934,2.2648999999999067,2.9987999999998127,4.231899999999905]","[""blk1"",""blk2"",""blk3"",""blk4""]","[1,1,1,1]",1,14.2637,15.2622,1,0,1,0,1
,,,,,,,,,111952,001,2024-02-24_22h11.07.870,corsi_blocks,2023.2.2,Win32,29.85074627,15.2627,"[[0.19375,-0.17125],[-0.35125,0.36625],[0.4125,-0.1325],[-0.4075,0.11875],[0.62875,-0.1825],[0.28875,0.39875],[-0.68625,-0.225],[0.54,0.03625],[-0.16125,-0.28]]",15.7625,15.7636,16.2623,0,0,0,0,1,,,,,,,,,,,,,,,,,,
,,,,,,,,,111952,001,2024-02-24_22h11.07.870,corsi_blocks,2023.2.2,Win32,29.85074627,,,,16.2628,16.7623,1,0,1,0,1,,,,,,,,,,,,,,,,,,
,,,,,,,,,111952,001,2024-02-24_22h11.07.870,corsi_blocks,2023.2.2,Win32,29.85074627,,,,16.7628,17.2624,2,0,2,0,1,,,,,,,,,,,,,,,,,,
,,,,,,,,,111952,001,2024-02-24_22h11.07.870,corsi_blocks,2023.2.2,Win32,29.85074627,,,,17.2631,17.7625,3,0,3,0,1,,,,,,,,,,,,,,,,,,
,,,,,,,,,111952,001,2024-02-24_22h11.07.870,corsi_blocks,2023.2.2,Win32,29.85074627,,,,17.7629,18.2627,4,0,4,0,1,,,,,,,,,,,,,,,,,,
,,,,,,,,,111952,001,2024-02-24_22h11.07.870,corsi_blocks,2023.2.2,Win32,29.85074627,,,,,,,,,,,18.263,56.2956,"[0.20234376192092896,0.6515625715255737,-0.3460937440395355,0.421875,0.5390625,0.5601562261581421]","[-0.18515628576278687,-0.19921875,0.3804687485098839,-0.1390625238418579,0.05703124403953552,-0.4242187738418579]","[1,1,1,1,1,1]","[0,0,0,0,0,0]","[0,0,0,0,0,0]","[7.664899999999907,20.365000000000006,29.531200000000194,31.99770000000019,34.26439999999991,38.031100000000094]","[""blk1"",""blk5"",""blk2"",""blk3"",""blk8""]","[1,0,0,0,0]",0,56.2964,57.2949,2,0,2,0,1
,,,,,,,,,111952,001,2024-02-24_22h11.07.870,corsi_blocks,2023.2.2,Win32,29.85074627,57.2958,"[[-0.09875,0.065],[-0.01875,0.235],[0.1925,-0.295],[0.0675,0.07375],[-0.285,-0.27125],[0.19375,-0.17125],[0.05875,-0.0575],[0.45375,0.175],[0.62875,-0.1825]]",57.795,57.7968,58.2948,0,0,0,0,1,,,,,,,,,,,,,,,,,,
,,,,,,,,,111952,001,2024-02-24_22h11.07.870,corsi_blocks,2023.2.2,Win32,29.85074627,,,,58.2953,58.7945,1,0,1,0,1,,,,,,,,,,,,,,,,,,
,,,,,,,,,111952,001,2024-02-24_22h11.07.870,corsi_blocks,2023.2.2,Win32,29.85074627,,,,58.7951,59.2949,2,0,2,0,1,,,,,,,,,,,,,,,,,,
,,,,,,,,,111952,001,2024-02-24_22h11.07.870,corsi_blocks,2023.2.2,Win32,29.85074627,,,,59.2954,59.795,3,0,3,0,1,,,,,,,,,,,,,,,,,,
,,,,,,,,,111952,001,2024-02-24_22h11.07.870,corsi_blocks,2023.2.2,Win32,29.85074627,,,,59.7955,60.2945,4,0,4,0,1,,,,,,,,,,,,,,,,,,
,,,,,,,,,111952,001,2024-02-24_22h11.07.870,corsi_blocks,2023.2.2,Win32,29.85074627,,,,,,,,,,,60.2947,81.494,"[0.19843751192092896,0.20390623807907104,0.004687488079071045,-0.30937498807907104,-0.0390625,-0.07890623807907104,0.043749988079071045,0.02187502384185791,0.4632812738418579,0.640625,0.4898437261581421,0.4898437261581421,0.4898437261581421]","[-0.32109373807907104,-0.20390623807907104,0.2601562440395355,-0.28046876192092896,0.06562498211860657,0.10468748211860657,0.04609373211860657,-0.036718785762786865,0.19687500596046448,-0.18125003576278687,-0.3617187738418579,-0.3617187738418579,-0.3617187738418579]","[1,1,1,1,1,1,1,1,1,1,1,1,1]","[0,0,0,0,0,0,0,0,0,0,0,0,0]","[0,0,0,0,0,0,0,0,0,0,0,0,0]","[7.431699999999722,8.299299999999803,10.098899999999901,11.531999999999996,13.565100000000086,14.198299999999804,15.231799999999808,15.865299999999806,17.29810000000009,18.998399999999904,19.831799999999802,20.398100000000085,20.9315]","[""blk3"",""blk6"",""blk2"",""blk5"",""blk1"",""blk4"",""blk7"",""blk8"",""blk9""]","[0,0,0,0,0,0,0,0,0]",0,81.4946,82.4939,3,0,3,0,1
,,,,,,,,,111952,001,2024-02-24_22h11.07.870,corsi_blocks,2023.2.2,Win32,29.85074627,82.4944,"[[-0.26625,0.235],[0.54,0.03625],[0.0675,0.07375],[-0.16125,-0.28],[-0.485,0.34625],[-0.6025,0.0725],[-0.68625,-0.225],[-0.12125,-0.12625],[0.45375,0.175]]",82.9932,82.9941,83.4942,0,0,0,0,1,,,,,,,,,,,,,,,,,,
,,,,,,,,,111952,001,2024-02-24_22h11.07.870,corsi_blocks,2023.2.2,Win32,29.85074627,,,,83.4947,83.994,1,0,1,0,1,,,,,,,,,,,,,,,,,,
,,,,,,,,,111952,001,2024-02-24_22h11.07.870,corsi_blocks,2023.2.2,Win32,29.85074627,,,,83.9946,84.4937,2,0,2,0,1,,,,,,,,,,,,,,,,,,
,,,,,,,,,111952,001,2024-02-24_22h11.07.870,corsi_blocks,2023.2.2,Win32,29.85074627,,,,84.4941,85.9195,3,0,3,0,1,,,,,,,,,,,,,,,,,,
,,,,,,,,,111952,001,2024-02-24_22h11.07.870,corsi_blocks,2023.2.2,Win32,29.85074627,,,,85.9199,85.9206,4,0,4,0,1,,,,,,,,,,,,,,,,,,