instructions.started,instructions.stopped,key_resp.keys,mouse.x,mouse.y,mouse.leftButton,mouse.midButton,mouse.rightButton,mouse.time,participant,session,date,expName,psychopyVersion,OS,frameRate,ISI.started,positions,ISI.stopped,corsi_present.started,corsi_present.stopped,block_sequence.thisRepN,block_sequence.thisTrialN,block_sequence.thisN,block_sequence.thisIndex,block_sequence.ran,corsi_respond.started,corsi_respond.stopped,corsi_mouse.x,corsi_mouse.y,corsi_mouse.leftButton,corsi_mouse.midButton,corsi_mouse.rightButton,corsi_mouse.time,corsi_mouse.clicked_name,correct_list,corsi_correct,feedback.started,feedback.stopped,corsi_task.thisRepN,corsi_task.thisTrialN,corsi_task.thisN,corsi_task.thisIndex,corsi_task.ran
0.0002,39.277,,0.536805577,-0.105555607,1,0,0,39.2744,146904,001,2023-11-21_14h51.53.493,corsi_blocks,2023.2.2,Win32,59.96641881,,,,,,,,,,,,,,,,,,,,,,,,,,,,
,,,,,,,,,146904,001,2023-11-21_14h51.53.493,corsi_blocks,2023.2.2,Win32,59.96641881,39.2849,"[[-0.01125,-0.295],[0.4125,-0.1325],[0.25625,0.0975],[-0.35125,0.36625],[-0.0225,0.395],[0.365,-0.27625],[0.19375,-0.17125],[0.1925,-0.295],[0.45375,0.175]]",39.7742,39.777,40.2756,0,0,0,0,1,,,,,,,,,,,,,,,,,,
,,,,,,,,,146904,001,2023-11-21_14h51.53.493,corsi_blocks,2023.2.2,Win32,59.96641881,,,,40.2767,40.7751,1,0,1,0,1,,,,,,,,,,,,,,,,,,
,,,,,,,,,146904,001,2023-11-21_14h51.53.493,corsi_blocks,2023.2.2,Win32,59.96641881,,,,40.7758,41.2753,2,0,2,0,1,,,,,,,,,,,,,,,,,,
,,,,,,,,,146904,001,2023-11-21_14h51.53.493,corsi_blocks,2023.2.2,Win32,59.96641881,,,,,,,,,,,41.2761,46.4194,"[0.009027791157778766,0.44236113094828194,0.2861111286199755,0.5458333547123604]","[-0.3187500122003257,-0.1083333423982064,0.0694444380286667,-0.40138890232063]","[1,1,1,1]","[0,0,0,0]","[0,0,0,0]","[1.8151000000000934,2.4021999999997234,2.902000000000001,5.138100000000094]","[""blk1"",""blk2"",""blk3""]","[1,1,1]",1,46.4207,47.414,0,0,0,0,1
,,,,,,,,,146904,001,2023-11-21_14h51.53.493,corsi_blocks,2023.2.2,Win32,59.96641881,47.4148,"[[0.6375,0.27375],[-0.55125,-0.13375],[0.05875,-0.0575],[-0.285,-0.27125],[-0.12125,-0.12625],[-0.675,0.29875],[-0.16125,-0.28],[-0.3575,-0.05625],[-0.6025,0.0725]]",47.9141,47.9158,48.4147,0,0,0,0,1,,,,,,,,,,,,,,,,,,
,,,,,,,,,146904,001,2023-11-21_14h51.53.493,corsi_blocks,2023.2.2,Win32,59.96641881,,,,48.4158,48.9144,1,0,1,0,1,,,,,,,,,,,,,,,,,,
,,,,,,,,,146904,001,2023-11-21_14h51.53.493,corsi_blocks,2023.2.2,Win32,59.96641881,,,,48.9148,49.4026,2,0,2,0,1,,,,,,,,,,,,,,,,,,
,,,,,,,,,146904,001,2023-11-21_14h51.53.493,corsi_blocks,2023.2.2,Win32,59.96641881,,,,49.4033,49.8992,3,0,3,0,1,,,,,,,,,,,,,,,,,,
,,,,,,,,,146904,001,2023-11-21_14h51.53.493,corsi_blocks,2023.2.2,Win32,59.96641881,,,,,,,,,,,49.8994,54.5247,"[0.6138889112820228,-0.5673611063199738,0.011805568976948658,-0.29722217102017606,0.45069454917684326,0.452777797770169]","[0.24861110736512476,-0.14861112077616984,-0.05763889719835586,-0.2347222331704365,-0.3604166794878741,-0.41388890250689453]","[1,1,1,1,1,1]","[0,0,0,0,0,0]","[0,0,0,0,0,0]","[0.7317000000001883,1.4162000000001882,2.088000000000001,2.736399999999904,3.751299999999816,4.623100000000093]","[""blk1"",""blk2"",""blk3"",""blk4""]","[1,1,1,1]",1,54.5255,55.5205,1,0,1,0,1
,,,,,,,,,146904,001,2023-11-21_14h51.53.493,corsi_blocks,2023.2.2,Win32,59.96641881,55.5211,"[[0.22,0.2425],[0.28875,0.39875],[-0.24625,0.04375],[0.45375,0.175],[-0.0225,0.395],[-0.35125,0.36625],[-0.01125,-0.295],[-0.485,0.34625],[-0.26625,0.235]]",56.0209,56.0226,56.5209,0,0,0,0,1,,,,,,,,,,,,,,,,,,
,,,,,,,,,146904,001,2023-11-21_14h51.53.493,corsi_blocks,2023.2.2,Win32,59.96641881,,,,56.5211,57.0257,1,0,1,0,1,,,,,,,,,,,,,,,,,,
,,,,,,,,,146904,001,2023-11-21_14h51.53.493,corsi_blocks,2023.2.2,Win32,59.96641881,,,,57.0263,57.5265,2,0,2,0,1,,,,,,,,,,,,,,,,,,
,,,,,,,,,146904,001,2023-11-21_14h51.53.493,corsi_blocks,2023.2.2,Win32,59.96641881,,,,57.5271,58.0268,3,0,3,0,1,,,,,,,,,,,,,,,,,,
,,,,,,,,,146904,001,2023-11-21_14h51.53.493,corsi_blocks,2023.2.2,Win32,59.96641881,,,,58.0273,58.5233,4,0,4,0,1,,,,,,,,,,,,,,,,,,
,,,,,,,,,146904,001,2023-11-21_14h51.53.493,corsi_blocks,2023.2.2,Win32,59.96641881,,,,,,,,,,,58.5235,63.2278,"[0.2506944614255594,0.3138889068116744,-0.2895833244029846,0.48611113160020775,-0.03958332067769435,0.47013890913998085]","[0.2347222182692753,0.4347222159513168,-0.0006944519053730699,0.17916666188587746,0.37916666486610967,-0.3784722353124784]","[1,1,1,1,1,1]","[0,0,0,0,0,0]","[0,0,0,0,0,0]","[0.6147999999998106,0.9308999999999088,1.4155000000000015,3.517899999999919,3.9501999999997324,4.701399999999914]","[""blk1"",""blk2"",""blk3"",""blk4"",""blk5""]","[1,1,1,1,1]",1,63.2287,64.2282,2,0,2,0,1
,,,,,,,,,146904,001,2023-11-21_14h51.53.493,corsi_blocks,2023.2.2,Win32,59.96641881,64.2291,"[[-0.01875,0.235],[0.19375,-0.17125],[-0.45875,-0.3],[-0.01125,-0.295],[-0.6025,0.0725],[0.03125,-0.41],[0.62875,-0.1825],[-0.68625,-0.225],[0.30125,-0.0175]]",64.7284,64.7306,65.2317,0,0,0,0,1,,,,,,,,,,,,,,,,,,
,,,,,,,,,146904,001,2023-11-21_14h51.53.493,corsi_blocks,2023.2.2,Win32,59.96641881,,,,65.2324,65.7298,1,0,1,0,1,,,,,,,,,,,,,,,,,,
,,,,,,,,,146904,001,2023-11-21_14h51.53.493,corsi_blocks,2023.2.2,Win32,59.96641881,,,,65.7304,66.2336,2,0,2,0,1,,,,,,,,,,,,,,,,,,
,,,,,,,,,146904,001,2023-11-21_14h51.53.493,corsi_blocks,2023.2.2,Win32,59.96641881,,,,66.2342,66.7303,3,0,3,0,1,,,,,,,,,,,,,,,,,,
,,,,,,,,,146904,001,2023-11-21_14h51.53.493,corsi_blocks,2023.2.2,Win32,59.96641881,,,,66.7309,67.2307,4,0,4,0,1,,,,,,,,,,,,,,,,,,
,,,,,,,,,146904,001,2023-11-21_14h51.53.493,corsi_blocks,2023.2.2,Win32,59.96641881,,,,67.2314,67.7316,5,0,5,0,1,,,,,,,,,,,,,,,,,,
,,,,,,,,,146904,001,2023-11-21_14h51.53.493,corsi_blocks,2023.2.2,Win32,59.96641881,,,,,,,,,,,67.7318,75.0701,"[0.024305569163213175,0.15625001557378304,-0.4833333272900846,-0.056944432047506176,-0.5930555299545325,0.022916680253628228,0.5694444661753045]","[0.20486110671319896,-0.1881944546993408,-0.3090277898332311,-0.2708333448196451,0.09583332731078069,-0.3770833464028935,-0.40763890241376227]","[1,1,1,1,1,1,1]","[0,0,0,0,0,0,0]","[0,0,0,0,0,0,0]","[1.1820000000000022,3.733899999999906,4.21689999999991,5.338999999999999,5.83589999999991,6.674000000000007,7.3362999999998095]","[""blk1"",""blk2"",""blk3"",""blk4"",""blk5"",""blk6""]","[1,1,1,1,1,1]",1,75.0704,76.0707,3,0,3,0,1
,,,,,,,,,146904,001,2023-11-21_14h51.53.493,corsi_blocks,2023.2.2,Win32,59.96641881,76.0709,"[[-0.09875,0.065],[0.28875,0.39875],[0.62875,-0.1825],[-0.35125,0.36625],[0.4125,-0.1325],[0.05875,-0.0575],[-0.55125,-0.13375],[0.22,0.2425],[-0.675,0.29875]]",76.5717,76.5735,77.0723,0,0,0,0,1,,,,,,,,,,,,,,,,,,
,,,,,,,,,146904,001,2023-11-21_14h51.53.493,corsi_blocks,2023.2.2,Win32,59.96641881,,,,77.0729,77.572,1,0,1,0,1,,,,,,,,,,,,,,,,,,
,,,,,,,,,146904,001,2023-11-21_14h51.53.493,corsi_blocks,2023.2.2,Win32,59.96641881,,,,77.5723,78.0731,2,0,2,0,1,,,,,,,,,,,,,,,,,,
,,,,,,,,,146904,001,2023-11-21_14h51.53.493,corsi_blocks,2023.2.2,Win32,59.96641881,,,,78.0738,78.5738,3,0,3,0,1,,,,,,,,,,,,,,,,,,
,,,,,,,,,146904,001,2023-11-21_14h51.53.493,corsi_blocks,2023.2.2,Win32,59.96641881,,,,78.5744,79.078,4,0,4,0,1,,,,,,,,,,,,,,,,,,
,,,,,,,,,146904,001,2023-11-21_14h51.53.493,corsi_blocks,2023.2.2,Win32,59.96641881,,,,79.0786,79.5743,5,0,5,0,1,,,,,,,,,,,,,,,,,,
,,,,,,,,,146904,001,2023-11-21_14h51.53.493,corsi_blocks,2023.2.2,Win32,59.96641881,,,,79.5751,80.075,6,0,6,0,1,,,,,,,,,,,,,,,,,,
,,,,,,,,,146904,001,2023-11-21_14h51.53.493,corsi_blocks,2023.2.2,Win32,59.96641881,,,,,,,,,,,80.0752,86.635,"[-0.04166665404207177,-0.07638887678169543,0.31597224017605186,0.29097232457457445,0.6305555781970421,-0.33611110287408036,0.40347224147990346,0.051388987671171234,-0.5319444391255578,0.5458333547123604]","[0.05763888229719467,0.05833332675198714,0.44930555480014944,0.43194444343033767,-0.18888894153965907,0.37847222041131723,-0.1083333423982064,-0.055555563833978444,-0.144444454047415,-0.376388901948101]","[1,1,1,1,1,1,1,1,1,1]","[0,0,0,0,0,0,0,0,0,0]","[0,0,0,0,0,0,0,0,0,0]","[0.43019999999971503,1.2647999999998092,1.664399999999901,2.48269999999971,3.2023999999998978,3.73269999999971,4.616899999999902,5.300899999999899,5.867999999999995,6.556799999999811]","[""blk1"",""blk2"",""blk3"",""blk4"",""blk5"",""blk6"",""blk7""]","[1,1,1,1,1,1,1]",1,86.6363,87.6348,4,0,4,0,1
,,,,,,,,,146904,001,2023-11-21_14h51.53.493,corsi_blocks,2023.2.2,Win32,59.96641881,87.6353,"[[-0.3575,-0.05625],[-0.35125,0.36625],[-0.18625,0.41125],[0.0675,0.07375],[0.05875,-0.0575],[0.16625,0.3825],[0.57875,-0.31375],[-0.12125,-0.12625],[0.6375,0.27375]]",88.1348,88.1365,88.632,0,0,0,0,1,,,,,,,,,,,,,,,,,,
,,,,,,,,,146904,001,2023-11-21_14h51.53.493,corsi_blocks,2023.2.2,Win32,59.96641881,,,,88.6327,89.1323,1,0,1,0,1,,,,,,,,,,,,,,,,,,
,,,,,,,,,146904,001,2023-11-21_14h51.53.493,corsi_blocks,2023.2.2,Win32,59.96641881,,,,89.133,89.6328,2,0,2,0,1,,,,,,,,,,,,,,,,,,
,,,,,,,,,146904,001,2023-11-21_14h51.53.493,corsi_blocks,2023.2.2,Win32,59.96641881,,,,89.6334,90.1331,3,0,3,0,1,,,,,,,,,,,,,,,,,,
,,,,,,,,,146904,001,2023-11-21_14h51.53.493,corsi_blocks,2023.2.2,Win32,59.96641881,,,,90.1337,90.6335,4,0,4,0,1,,,,,,,,,,,,,,,,,,
,,,,,,,,,146904,001,2023-11-21_14h51.53.493,corsi_blocks,2023.2.2,Win32,59.96641881,,,,90.6341,91.134,5,0,5,0,1,,,,,,,,,,,,,,,,,,
,,,,,,,,,146904,001,2023-11-21_14h51.53.493,corsi_blocks,2023.2.2,Win32,59.96641881,,,,91.1346,91.635,6,0,6,0,1,,,,,,,,,,,,,,,,,,
,,,,,,,,,146904,001,2023-11-21_14h51.53.493,corsi_blocks,2023.2.2,Win32,59.96641881,,,,91.6356,92.1389,7,0,7,0,1,,,,,,,,,,,,,,,,,,
,,,,,,,,,146904,001,2023-11-21_14h51.53.493,corsi_blocks,2023.2.2,Win32,59.96641881,,,,,,,,,,,92.1391,99.0418,"[-0.3555555476082696,-0.32013888041385347,-0.3611111032466094,-0.18749998954849112,0.03402787630135941,0.046527791716572314,0.6027778000053432,-0.1409722110773954,0.6062500222793056,0.5333333545260959,0.5256944655233787]","[0.37847222041131723,0.3506944422196183,-0.07777782877286338,0.4083333319673936,0.036111104198628,-0.019444452184769843,-0.29930556746613646,-0.15138889859533972,-0.41875001369044185,-0.3215277900194956,-0.41041668023293215]","[1,1,1,1,1,1,1,1,1,1,1]","[0,0,0,0,0,0,0,0,0,0,0]","[0,0,0,0,0,0,0,0,0,0,0]","[0.5817999999998165,1.97789999999992,2.645899999999912,3.050199999999734,3.6635000000000133,3.9962999999998203,4.547500000000014,5.169000000000011,5.964399999999912,6.565000000000012,6.899899999999917]","[""blk2"",""blk2"",""blk1"",""blk3"",""blk4"",""blk5"",""blk7"",""blk8"",""blk7""]","[0,0,1,1,1,0,0]",0,99.0428,100.0416,5,0,5,0,1
,,,,,,,,,146904,001,2023-11-21_14h51.53.493,corsi_blocks,2023.2.2,Win32,59.96641881,100.0439,"[[-0.24625,0.04375],[0.22,0.2425],[-0.09875,0.065],[0.62875,-0.1825],[-0.485,0.34625],[0.57875,-0.31375],[-0.35125,0.36625],[-0.6025,0.0725],[-0.45875,-0.3]]",100.5419,100.5437,101.0416,0,0,0,0,1,,,,,,,,,,,,,,,,,,
,,,,,,,,,146904,001,2023-11-21_14h51.53.493,corsi_blocks,2023.2.2,Win32,59.96641881,,,,101.0418,101.543,1,0,1,0,1,,,,,,,,,,,,,,,,,,
,,,,,,,,,146904,001,2023-11-21_14h51.53.493,corsi_blocks,2023.2.2,Win32,59.96641881,,,,101.5437,102.0433,2,0,2,0,1,,,,,,,,,,,,,,,,,,
,,,,,,,,,146904,001,2023-11-21_14h51.53.493,corsi_blocks,2023.2.2,Win32,59.96641881,,,,102.0438,102.5435,3,0,3,0,1,,,,,,,,,,,,,,,,,,
,,,,,,,,,146904,001,2023-11-21_14h51.53.493,corsi_blocks,2023.2.2,Win32,59.96641881,,,,102.5442,103.0441,4,0,4,0,1,,,,,,,,,,,,,,,,,,
,,,,,,,,,146904,001,2023-11-21_14h51.53.493,corsi_blocks,2023.2.2,Win32,59.96641881,,,,103.0447,103.5485,5,0,5,0,1,,,,,,,,,,,,,,,,,,
,,,,,,,,,146904,001,2023-11-21_14h51.53.493,corsi_blocks,2023.2.2,Win32,59.96641881,,,,103.5491,104.0521,6,0,6,0,1,,,,,,,,,,,,,,,,,,
,,,,,,,,,146904,001,2023-11-21_14h51.53.493,corsi_blocks,2023.2.2,Win32,59.96641881,,,,104.0528,104.5453,7,0,7,0,1,,,,,,,,,,,,,,,,,,
,,,,,,,,,146904,001,2023-11-21_14h51.53.493,corsi_blocks,2023.2.2,Win32,59.96641881,,,,,,,,,,,104.5455,110.2676,"[-0.2340277680195868,-0.13819443325822553,0.24375001687763465,-0.32708332496177817,0.6555555785695711,0.6027778000053432,-0.499999994205104,-0.577777773141861,0.48125002041666043]","[0.0437499508158194,0.06597221575470434,0.2618055520061817,0.37569444259214735,-0.16666667660077414,-0.28819445618945694,0.3888888872332043,0.06319443793553445,-0.39791668004666764]","[1,1,1,1,1,1,1,1,1]","[0,0,0,0,0,0,0,0,0]","[0,0,0,0,0,0,0,0,0]","[0.964500000000001,1.4014999999999986,1.882600000000096,2.6018999999999153,3.4716000000000946,3.8533999999999082,4.600999999999999,5.102600000000095,5.719600000000099]","[""blk1"",""blk3"",""blk2"",""blk7"",""blk4"",""blk6"",""blk5"",""blk8""]","[1,0,0,0,0,1,0,1]",0,110.2684,111.2675,6,0,6,0,1
,,,,,,,,,146904,001,2023-11-21_14h51.53.493,corsi_blocks,2023.2.2,Win32,59.96641881,111.2682,"[[-0.35125,0.36625],[-0.285,-0.27125],[0.45375,0.175],[0.4125,-0.1325],[-0.24625,0.04375],[-0.01875,0.235],[-0.26625,0.235],[0.0675,0.07375],[0.22,0.2425]]",111.7682,111.7704,112.2687,0,0,0,0,1,,,,,,,,,,,,,,,,,,
,,,,,,,,,146904,001,2023-11-21_14h51.53.493,corsi_blocks,2023.2.2,Win32,59.96641881,,,,112.2694,112.7729,1,0,1,0,1,,,,,,,,,,,,,,,,,,
,,,,,,,,,146904,001,2023-11-21_14h51.53.493,corsi_blocks,2023.2.2,Win32,59.96641881,,,,112.7735,113.2694,2,0,2,0,1,,,,,,,,,,,,,,,,,,
,,,,,,,,,146904,001,2023-11-21_14h51.53.493,corsi_blocks,2023.2.2,Win32,59.96641881,,,,113.2701,113.77,3,0,3,0,1,,,,,,,,,,,,,,,,,,
,,,,,,,,,146904,001,2023-11-21_14h51.53.493,corsi_blocks,2023.2.2,Win32,59.96641881,,,,113.7706,114.2704,4,0,4,0,1,,,,,,,,,,,,,,,,,,
,,,,,,,,,146904,001,2023-11-21_14h51.53.493,corsi_blocks,2023.2.2,Win32,59.96641881,,,,114.271,114.7706,5,0,5,0,1,,,,,,,,,,,,,,,,,,
,,,,,,,,,146904,001,2023-11-21_14h51.53.493,corsi_blocks,2023.2.2,Win32,59.96641881,,,,114.7712,115.271,6,0,6,0,1,,,,,,,,,,,,,,,,,,
,,,,,,,,,146904,001,2023-11-21_14h51.53.493,corsi_blocks,2023.2.2,Win32,59.96641881,,,,115.2716,115.7714,7,0,7,0,1,,,,,,,,,,,,,,,,,,
,,,,,,,,,146904,001,2023-11-21_14h51.53.493,corsi_blocks,2023.2.2,Win32,59.96641881,,,,,,,,,,,115.7717,122.4597,"[-0.3187499915042685,0.495833438738354,0.4201389083949228,-0.3097222135919664,-0.2624999482805524,0.05347223626449704,0.006250098109660485,-0.1923611007320384,0.21736112759552068,0.5388889101644357]","[0.3583333312223355,0.178472217431085,-0.1569444542336795,-0.2548611223594182,0.1958333288008968,0.07916666039576133,0.24027777390761507,0.047916659930100046,0.2319444192573425,-0.3888889021343655]","[1,1,1,1,1,1,1,1,1,1]","[0,0,0,0,0,0,0,0,0,0]","[0,0,0,0,0,0,0,0,0,0]","[0.8808999999998974,1.5158999999999025,2.0993999999999033,2.7326000000000903,3.333799999999812,4.401499999999999,4.835600000000085,5.418199999999715,5.919600000000088,6.685899999999904]","[""blk1"",""blk3"",""blk4"",""blk2"",""blk7"",""blk8"",""blk6"",""blk9""]","[1,0,0,0,0,0,0,0]",0,122.4599,123.465,7,0,7,0,1
,,,,,,,,,146904,001,2023-11-21_14h51.53.493,corsi_blocks,2023.2.2,Win32,59.96641881,123.4655,"[[-0.3575,-0.05625],[-0.285,-0.27125],[-0.01875,0.235],[0.4625,0.35875],[0.0675,0.07375],[-0.0225,0.395],[0.30125,-0.0175],[-0.24625,0.04375],[0.62875,-0.1825]]",123.9614,123.9633,124.4621,0,0,0,0,1,,,,,,,,,,,,,,,,,,
,,,,,,,,,146904,001,2023-11-21_14h51.53.493,corsi_blocks,2023.2.2,Win32,59.96641881,,,,124.4627,124.9621,1,0,1,0,1,,,,,,,,,,,,,,,,,,
,,,,,,,,,146904,001,2023-11-21_14h51.53.493,corsi_blocks,2023.2.2,Win32,59.96641881,,,,124.9627,125.463,2,0,2,0,1,,,,,,,,,,,,,,,,,,
,,,,,,,,,146904,001,2023-11-21_14h51.53.493,corsi_blocks,2023.2.2,Win32,59.96641881,,,,125.4636,125.9674,3,0,3,0,1,,,,,,,,,,,,,,,,,,
,,,,,,,,,146904,001,2023-11-21_14h51.53.493,corsi_blocks,2023.2.2,Win32,59.96641881,,,,125.968,126.4631,4,0,4,0,1,,,,,,,,,,,,,,,,,,
,,,,,,,,,146904,001,2023-11-21_14h51.53.493,corsi_blocks,2023.2.2,Win32,59.96641881,,,,126.4633,126.9642,5,0,5,0,1,,,,,,,,,,,,,,,,,,
,,,,,,,,,146904,001,2023-11-21_14h51.53.493,corsi_blocks,2023.2.2,Win32,59.96641881,,,,126.9647,127.4647,6,0,6,0,1,,,,,,,,,,,,,,,,,,
,,,,,,,,,146904,001,2023-11-21_14h51.53.493,corsi_blocks,2023.2.2,Win32,59.96641881,,,,127.4653,127.9651,7,0,7,0,1,,,,,,,,,,,,,,,,,,
,,,,,,,,,146904,001,2023-11-21_14h51.53.493,corsi_blocks,2023.2.2,Win32,59.96641881,,,,,,,,,,,127.9653,135.8061,"[-0.2499999904798137,-0.33819443623845774,-0.013194431395580372,0.09236112573287553,0.08263898813683251,0.3229166847239766,0.6354166893805895,0.4381944642195271,-0.27638883737640185,-0.023611098217467468,0.4875000205097927,0.506944465243982]","[0.026388839446007575,-0.025000007823109627,0.22708332926655808,0.013888881645268865,0.07847221594096886,-0.010416674272467693,-0.1805555656966236,0.32638888630188173,-0.26805556700047517,0.397222220690714,-0.3680555684905913,-0.3930555688631203]","[1,1,1,1,1,1,1,1,1,1,1,1]","[0,0,0,0,0,0,0,0,0,0,0,0]","[0,0,0,0,0,0,0,0,0,0,0,0]","[2.2018999999999096,2.64969999999974,3.2167999999998074,3.5003999999998996,3.849799999999817,4.155000000000001,4.71760000000009,5.2343999999999085,6.004899999999907,6.719100000000111,7.21989999999991,7.837899999999905]","[""blk8"",""blk1"",""blk3"",""blk5"",""blk7"",""blk9"",""blk4"",""blk2"",""blk6""]","[0,0,1,0,0,0,0,0,0]",0,135.807,136.8057,8,0,8,0,1