instructions.started,instructions.stopped,key_resp.keys,key_resp.rt,key_resp.duration,mouse.x,mouse.y,mouse.leftButton,mouse.midButton,mouse.rightButton,mouse.time,participant,session,date,expName,psychopyVersion,OS,frameRate,ISI.started,positions,ISI.stopped,corsi_present.started,corsi_present.stopped,block_sequence.thisRepN,block_sequence.thisTrialN,block_sequence.thisN,block_sequence.thisIndex,block_sequence.ran,corsi_respond.started,corsi_respond.stopped,corsi_mouse.x,corsi_mouse.y,corsi_mouse.leftButton,corsi_mouse.midButton,corsi_mouse.rightButton,corsi_mouse.time,corsi_mouse.clicked_name,correct_list,corsi_correct,feedback.started,feedback.stopped,corsi_task.thisRepN,corsi_task.thisTrialN,corsi_task.thisN,corsi_task.thisIndex,corsi_task.ran
0.0037,5.1694,space,5.1433,,,,,,,,236658,001,2023-12-11_15h43.40.006,corsi_blocks,2023.2.2,MacIntel,60.0024001,,,,,,,,,,,,,,,,,,,,,,,,,,,,
,,,,,,,,,,,236658,001,2023-12-11_15h43.40.006,corsi_blocks,2023.2.2,MacIntel,60.0024001,5.1758,"[[-0.3575,-0.05625],[0.57875,-0.31375],[-0.01875,0.235],[-0.01125,-0.295],[0.45375,0.175],[-0.675,0.29875],[0.54,0.03625],[0.4625,0.35875],[-0.24625,0.04375]]",5.6686,5.6707,6.1704,0,0,0,0,1,,,,,,,,,,,,,,,,,,
,,,,,,,,,,,236658,001,2023-12-11_15h43.40.006,corsi_blocks,2023.2.2,MacIntel,60.0024001,,,,6.1715,6.6668,1,0,1,0,1,,,,,,,,,,,,,,,,,,
,,,,,,,,,,,236658,001,2023-12-11_15h43.40.006,corsi_blocks,2023.2.2,MacIntel,60.0024001,,,,6.6675,7.1686,2,0,2,0,1,,,,,,,,,,,,,,,,,,
,,,,,,,,,,,236658,001,2023-12-11_15h43.40.006,corsi_blocks,2023.2.2,MacIntel,60.0024001,,,,,,,,,,,7.17,13.1357,"[-0.3455989583333333,0.53546875,-0.024505208333333334,0.5211935763888889,0.47315104166666666]","[-0.06901475694444445,-0.3117404513888889,0.21852430555555555,-0.43024305555555553,-0.3965017361111111]","[1,1,1,1,1]","[0,0,0,0,0]","[0,0,0,0,0]","[1.797600000000557,2.713900000000372,3.6777000000001863,5.045999999999999,5.9625]","[""blk1"",""blk2"",""blk3""]","[1,1,1]",1,13.1403,14.1358,0,0,0,0,1
,,,,,,,,,,,236658,001,2023-12-11_15h43.40.006,corsi_blocks,2023.2.2,MacIntel,60.0024001,14.1369,"[[0.30125,-0.0175],[-0.485,0.34625],[0.19375,-0.17125],[0.28875,0.39875],[0.57875,-0.31375],[0.62875,-0.1825],[0.05875,-0.0575],[0.0675,0.07375],[-0.01875,0.235]]",14.6333,14.6357,15.1358,0,0,0,0,1,,,,,,,,,,,,,,,,,,
,,,,,,,,,,,236658,001,2023-12-11_15h43.40.006,corsi_blocks,2023.2.2,MacIntel,60.0024001,,,,15.1365,15.6368,1,0,1,0,1,,,,,,,,,,,,,,,,,,
,,,,,,,,,,,236658,001,2023-12-11_15h43.40.006,corsi_blocks,2023.2.2,MacIntel,60.0024001,,,,15.6378,16.1361,2,0,2,0,1,,,,,,,,,,,,,,,,,,
,,,,,,,,,,,236658,001,2023-12-11_15h43.40.006,corsi_blocks,2023.2.2,MacIntel,60.0024001,,,,16.1369,16.6369,3,0,3,0,1,,,,,,,,,,,,,,,,,,
,,,,,,,,,,,236658,001,2023-12-11_15h43.40.006,corsi_blocks,2023.2.2,MacIntel,60.0024001,,,,,,,,,,,16.6372,21.7026,"[0.27953125,-0.49342447916666665,0.19420138888888888,0.27773003472222224,0.28991319444444447,0.5031814236111111]","[-0.01970486111111111,0.33114149305555557,-0.1878689236111111,0.33069444444444446,0.37323350694444446,-0.4124305555555556]","[1,1,1,1,1,1]","[0,0,0,0,0,0]","[0,0,0,0,0,0]","[1.043099999999626,1.8098999999994376,2.4597999999998095,3.1287000000001868,3.7427999999998107,5.061499999999995]","[""blk1"",""blk2"",""blk3"",""blk4""]","[1,1,1,1]",1,21.7056,22.7007,1,0,1,0,1
,,,,,,,,,,,236658,001,2023-12-11_15h43.40.006,corsi_blocks,2023.2.2,MacIntel,60.0024001,22.7013,"[[-0.26625,0.235],[-0.45875,-0.3],[0.03125,-0.41],[-0.18625,0.41125],[-0.6025,0.0725],[-0.285,-0.27125],[0.30125,-0.0175],[0.4125,-0.1325],[0.16625,0.3825]]",23.2036,23.2056,23.7025,0,0,0,0,1,,,,,,,,,,,,,,,,,,
,,,,,,,,,,,236658,001,2023-12-11_15h43.40.006,corsi_blocks,2023.2.2,MacIntel,60.0024001,,,,23.7031,24.2004,1,0,1,0,1,,,,,,,,,,,,,,,,,,
,,,,,,,,,,,236658,001,2023-12-11_15h43.40.006,corsi_blocks,2023.2.2,MacIntel,60.0024001,,,,24.201,24.7043,2,0,2,0,1,,,,,,,,,,,,,,,,,,
,,,,,,,,,,,236658,001,2023-12-11_15h43.40.006,corsi_blocks,2023.2.2,MacIntel,60.0024001,,,,24.7048,25.202,3,0,3,0,1,,,,,,,,,,,,,,,,,,
,,,,,,,,,,,236658,001,2023-12-11_15h43.40.006,corsi_blocks,2023.2.2,MacIntel,60.0024001,,,,25.2026,25.7032,4,0,4,0,1,,,,,,,,,,,,,,,,,,
,,,,,,,,,,,236658,001,2023-12-11_15h43.40.006,corsi_blocks,2023.2.2,MacIntel,60.0024001,,,,,,,,,,,25.7034,31.1172,"[-0.2295529513888889,-0.2306640625,-0.4572222222222222,0.0626171875,-0.1937282986111111,-0.6462717013888889,0.5272569444444445]","[0.1762717013888889,0.1905859375,-0.32825086805555553,-0.4143532986111111,0.4237196180555556,0.06768663194444445,-0.4102777777777778]","[1,1,1,1,1,1,1]","[0,0,0,0,0,0,0]","[0,0,0,0,0,0,0]","[0.7639000000003762,1.2167999999998145,2.149299999999819,2.8952000000001874,3.799700000000186,4.547400000000373,5.412700000000193]","[""blk1"",""blk2"",""blk3"",""blk4"",""blk5""]","[1,1,1,1,1]",1,31.1222,32.1189,2,0,2,0,1
,,,,,,,,,,,236658,001,2023-12-11_15h43.40.006,corsi_blocks,2023.2.2,MacIntel,60.0024001,32.1193,"[[0.4625,0.35875],[0.54,0.03625],[0.19375,-0.17125],[-0.35125,0.36625],[-0.3575,-0.05625],[0.22,0.2425],[0.03125,-0.41],[0.4125,-0.1325],[-0.4075,0.11875]]",32.6168,32.619,33.1168,0,0,0,0,1,,,,,,,,,,,,,,,,,,
,,,,,,,,,,,236658,001,2023-12-11_15h43.40.006,corsi_blocks,2023.2.2,MacIntel,60.0024001,,,,33.1174,33.6185,1,0,1,0,1,,,,,,,,,,,,,,,,,,
,,,,,,,,,,,236658,001,2023-12-11_15h43.40.006,corsi_blocks,2023.2.2,MacIntel,60.0024001,,,,33.6189,34.1198,2,0,2,0,1,,,,,,,,,,,,,,,,,,
,,,,,,,,,,,236658,001,2023-12-11_15h43.40.006,corsi_blocks,2023.2.2,MacIntel,60.0024001,,,,34.1207,34.6196,3,0,3,0,1,,,,,,,,,,,,,,,,,,
,,,,,,,,,,,236658,001,2023-12-11_15h43.40.006,corsi_blocks,2023.2.2,MacIntel,60.0024001,,,,34.6203,35.1196,4,0,4,0,1,,,,,,,,,,,,,,,,,,
,,,,,,,,,,,236658,001,2023-12-11_15h43.40.006,corsi_blocks,2023.2.2,MacIntel,60.0024001,,,,35.1201,35.6191,5,0,5,0,1,,,,,,,,,,,,,,,,,,
,,,,,,,,,,,236658,001,2023-12-11_15h43.40.006,corsi_blocks,2023.2.2,MacIntel,60.0024001,,,,,,,,,,,35.6193,42.3854,"[0.49875,0.5683550347222223,0.22223524305555556,-0.33988715277777776,-0.37457899305555553,0.23614149305555557,0.45393663194444445,0.4712543402777778]","[0.3368315972222222,0.021671006944444446,-0.15193142361111112,0.3703559027777778,-0.05699652777777778,0.22350260416666667,-0.43427083333333333,-0.3922699652777778]","[1,1,1,1,1,1,1,1]","[0,0,0,0,0,0,0,0]","[0,0,0,0,0,0,0,0]","[1.3309000000003763,2.1494000000003766,2.883499999999998,3.7467999999998156,4.6325,5.448400000000376,6.230299999999815,6.764499999999998]","[""blk1"",""blk2"",""blk3"",""blk4"",""blk5"",""blk6""]","[1,1,1,1,1,1]",1,42.3892,43.3836,3,0,3,0,1
,,,,,,,,,,,236658,001,2023-12-11_15h43.40.006,corsi_blocks,2023.2.2,MacIntel,60.0024001,43.3842,"[[-0.18625,0.41125],[-0.35125,0.36625],[-0.4075,0.11875],[-0.12125,-0.12625],[-0.26625,0.235],[0.19375,-0.17125],[0.16625,0.3825],[0.4125,-0.1325],[0.365,-0.27625]]",43.8852,43.8867,44.3861,0,0,0,0,1,,,,,,,,,,,,,,,,,,
,,,,,,,,,,,236658,001,2023-12-11_15h43.40.006,corsi_blocks,2023.2.2,MacIntel,60.0024001,,,,44.3866,44.8858,1,0,1,0,1,,,,,,,,,,,,,,,,,,
,,,,,,,,,,,236658,001,2023-12-11_15h43.40.006,corsi_blocks,2023.2.2,MacIntel,60.0024001,,,,44.8864,45.3863,2,0,2,0,1,,,,,,,,,,,,,,,,,,
,,,,,,,,,,,236658,001,2023-12-11_15h43.40.006,corsi_blocks,2023.2.2,MacIntel,60.0024001,,,,45.3869,45.8876,3,0,3,0,1,,,,,,,,,,,,,,,,,,
,,,,,,,,,,,236658,001,2023-12-11_15h43.40.006,corsi_blocks,2023.2.2,MacIntel,60.0024001,,,,45.8884,46.3861,4,0,4,0,1,,,,,,,,,,,,,,,,,,
,,,,,,,,,,,236658,001,2023-12-11_15h43.40.006,corsi_blocks,2023.2.2,MacIntel,60.0024001,,,,46.3868,46.8859,5,0,5,0,1,,,,,,,,,,,,,,,,,,
,,,,,,,,,,,236658,001,2023-12-11_15h43.40.006,corsi_blocks,2023.2.2,MacIntel,60.0024001,,,,46.8862,47.3853,6,0,6,0,1,,,,,,,,,,,,,,,,,,
,,,,,,,,,,,236658,001,2023-12-11_15h43.40.006,corsi_blocks,2023.2.2,MacIntel,60.0024001,,,,,,,,,,,47.3856,54.5032,"[-0.19553385416666666,-0.3478689236111111,-0.2829817708333333,-0.41273003472222225,-0.12455729166666667,0.17073350694444445,0.1313064236111111,0.4982986111111111,0.4982986111111111,0.4997439236111111]","[0.41693142361111113,0.3671875,0.22934895833333332,0.12801215277777778,-0.09317708333333333,-0.16944010416666666,0.38687065972222223,-0.4609418402777778,-0.4323828125,-0.4094314236111111]","[1,1,1,1,1,1,1,1,1,1]","[0,0,0,0,0,0,0,0,0,0]","[0,0,0,0,0,0,0,0,0,0]","[1.8162000000001868,2.3155,2.7978000000007484,3.3163000000007443,3.9467000000001846,4.667400000000377,5.232600000000559,5.950800000000747,6.3160000000000025,7.115800000000746]","[""blk1"",""blk2"",""blk5"",""blk3"",""blk4"",""blk6"",""blk7""]","[1,1,0,0,0,1,1]",0,54.5068,55.5039,4,0,4,0,1
,,,,,,,,,,,236658,001,2023-12-11_15h43.40.006,corsi_blocks,2023.2.2,MacIntel,60.0024001,55.5046,"[[-0.68625,-0.225],[0.0675,0.07375],[0.16625,0.3825],[0.03125,-0.41],[-0.01875,0.235],[-0.26625,0.235],[-0.3575,-0.05625],[-0.16125,-0.28],[0.45375,0.175]]",56.003,56.0046,56.5043,0,0,0,0,1,,,,,,,,,,,,,,,,,,
,,,,,,,,,,,236658,001,2023-12-11_15h43.40.006,corsi_blocks,2023.2.2,MacIntel,60.0024001,,,,56.5049,57.0033,1,0,1,0,1,,,,,,,,,,,,,,,,,,
,,,,,,,,,,,236658,001,2023-12-11_15h43.40.006,corsi_blocks,2023.2.2,MacIntel,60.0024001,,,,57.0039,57.5045,2,0,2,0,1,,,,,,,,,,,,,,,,,,
,,,,,,,,,,,236658,001,2023-12-11_15h43.40.006,corsi_blocks,2023.2.2,MacIntel,60.0024001,,,,57.505,58.0042,3,0,3,0,1,,,,,,,,,,,,,,,,,,
,,,,,,,,,,,236658,001,2023-12-11_15h43.40.006,corsi_blocks,2023.2.2,MacIntel,60.0024001,,,,58.0049,58.5046,4,0,4,0,1,,,,,,,,,,,,,,,,,,
,,,,,,,,,,,236658,001,2023-12-11_15h43.40.006,corsi_blocks,2023.2.2,MacIntel,60.0024001,,,,58.5053,59.0037,5,0,5,0,1,,,,,,,,,,,,,,,,,,
,,,,,,,,,,,236658,001,2023-12-11_15h43.40.006,corsi_blocks,2023.2.2,MacIntel,60.0024001,,,,59.0047,59.5007,6,0,6,0,1,,,,,,,,,,,,,,,,,,
,,,,,,,,,,,236658,001,2023-12-11_15h43.40.006,corsi_blocks,2023.2.2,MacIntel,60.0024001,,,,,,,,,,,59.5008,70.7707,"[-0.6914453125,0.15376302083333335,0.0825,0.04576388888888889,-0.29446180555555557,-0.2138064236111111,-0.27078993055555556,-0.03878472222222222,-0.32198350694444444,-0.35161892361111113,0.5379253472222222,0.5420138888888889]","[-0.23817708333333334,0.3763888888888889,0.06871527777777778,-0.3932291666666667,0.28987847222222224,0.23831597222222223,0.2276996527777778,0.2241623263888889,-0.18519097222222222,-0.06727864583333333,-0.4269748263888889,-0.4126953125]","[1,1,1,1,1,1,1,1,1,1,1,1]","[0,0,0,0,0,0,0,0,0,0,0,0]","[0,0,0,0,0,0,0,0,0,0,0,0]","[2.148999999999994,4.384599999999615,5.084099999999616,5.864999999999988,6.634899999999426,7.1193999999994375,7.682599999999617,8.13269999999924,9.268499999999996,9.768599999999616,10.618599999999624,11.268499999999996]","[""blk1"",""blk3"",""blk2"",""blk4"",""blk6"",""blk5"",""blk7""]","[1,0,0,1,0,0,1]",0,70.7773,71.7699,5,0,5,0,1
,,,,,,,,,,,236658,001,2023-12-11_15h43.40.006,corsi_blocks,2023.2.2,MacIntel,60.0024001,71.7706,"[[-0.26625,0.235],[0.62875,-0.1825],[-0.0225,0.395],[-0.55125,-0.13375],[0.19375,-0.17125],[-0.68625,-0.225],[0.28875,0.39875],[-0.01125,-0.295],[-0.01875,0.235]]",72.2704,72.272,72.7715,0,0,0,0,1,,,,,,,,,,,,,,,,,,
,,,,,,,,,,,236658,001,2023-12-11_15h43.40.006,corsi_blocks,2023.2.2,MacIntel,60.0024001,,,,72.7722,73.2715,1,0,1,0,1,,,,,,,,,,,,,,,,,,
,,,,,,,,,,,236658,001,2023-12-11_15h43.40.006,corsi_blocks,2023.2.2,MacIntel,60.0024001,,,,73.2722,73.7704,2,0,2,0,1,,,,,,,,,,,,,,,,,,
,,,,,,,,,,,236658,001,2023-12-11_15h43.40.006,corsi_blocks,2023.2.2,MacIntel,60.0024001,,,,73.771,74.2681,3,0,3,0,1,,,,,,,,,,,,,,,,,,
,,,,,,,,,,,236658,001,2023-12-11_15h43.40.006,corsi_blocks,2023.2.2,MacIntel,60.0024001,,,,74.2686,74.7695,4,0,4,0,1,,,,,,,,,,,,,,,,,,
,,,,,,,,,,,236658,001,2023-12-11_15h43.40.006,corsi_blocks,2023.2.2,MacIntel,60.0024001,,,,74.77,75.2696,5,0,5,0,1,,,,,,,,,,,,,,,,,,
,,,,,,,,,,,236658,001,2023-12-11_15h43.40.006,corsi_blocks,2023.2.2,MacIntel,60.0024001,,,,75.2703,75.7712,6,0,6,0,1,,,,,,,,,,,,,,,,,,
,,,,,,,,,,,236658,001,2023-12-11_15h43.40.006,corsi_blocks,2023.2.2,MacIntel,60.0024001,,,,,,,,,,,75.7715,83.3703,"[-0.03957899305555555,0.5986197916666667,-0.5389019097222222,0.18684461805555555,-0.6572482638888889,-0.015946180555555557,-0.03495659722222222,0.4850043402777778]","[0.39932725694444443,-0.15499131944444444,-0.11686197916666667,-0.16215711805555555,-0.21586805555555555,-0.2867708333333333,0.1971657986111111,-0.4005208333333333]","[1,1,1,1,1,1,1,1]","[0,0,0,0,0,0,0,0]","[0,0,0,0,0,0,0,0]","[1.1985999999996295,2.0292999999998216,2.8479000000003794,4.745200000000196,5.42840000000038,6.247799999999813,6.9282999999998225,7.597000000000008]","[""blk3"",""blk2"",""blk4"",""blk5"",""blk6"",""blk8"",""blk9""]","[0,1,0,0,0,0,0]",0,83.3745,84.3679,6,0,6,0,1
,,,,,,,,,,,236658,001,2023-12-11_15h43.40.006,corsi_blocks,2023.2.2,MacIntel,60.0024001,84.3684,"[[0.4125,-0.1325],[-0.24625,0.04375],[0.22,0.2425],[0.6375,0.27375],[0.28875,0.39875],[-0.285,-0.27125],[0.25625,0.0975],[-0.35125,0.36625],[-0.18625,0.41125]]",84.8717,84.8735,85.3708,0,0,0,0,1,,,,,,,,,,,,,,,,,,
,,,,,,,,,,,236658,001,2023-12-11_15h43.40.006,corsi_blocks,2023.2.2,MacIntel,60.0024001,,,,85.3713,85.8708,1,0,1,0,1,,,,,,,,,,,,,,,,,,
,,,,,,,,,,,236658,001,2023-12-11_15h43.40.006,corsi_blocks,2023.2.2,MacIntel,60.0024001,,,,85.8714,86.3716,2,0,2,0,1,,,,,,,,,,,,,,,,,,
,,,,,,,,,,,236658,001,2023-12-11_15h43.40.006,corsi_blocks,2023.2.2,MacIntel,60.0024001,,,,86.3723,86.8706,3,0,3,0,1,,,,,,,,,,,,,,,,,,
,,,,,,,,,,,236658,001,2023-12-11_15h43.40.006,corsi_blocks,2023.2.2,MacIntel,60.0024001,,,,86.8712,87.3713,4,0,4,0,1,,,,,,,,,,,,,,,,,,
,,,,,,,,,,,236658,001,2023-12-11_15h43.40.006,corsi_blocks,2023.2.2,MacIntel,60.0024001,,,,87.3721,87.8715,5,0,5,0,1,,,,,,,,,,,,,,,,,,
,,,,,,,,,,,236658,001,2023-12-11_15h43.40.006,corsi_blocks,2023.2.2,MacIntel,60.0024001,,,,87.8722,88.3688,6,0,6,0,1,,,,,,,,,,,,,,,,,,
,,,,,,,,,,,236658,001,2023-12-11_15h43.40.006,corsi_blocks,2023.2.2,MacIntel,60.0024001,,,,,,,,,,,88.369,95.7688,"[0.41465711805555555,-0.2419184027777778,0.2622873263888889,0.6355859375,-0.28098958333333335,0.25594618055555557,0.2390972222222222,0.5386241319444445,0.5386241319444445,0.5279774305555556]","[-0.12335503472222223,0.030651041666666667,0.3567361111111111,0.2709244791666667,-0.2663064236111111,0.09472222222222222,0.23584635416666666,-0.4445529513888889,-0.4286979166666667,-0.40532552083333334]","[1,1,1,1,1,1,1,1,1,1]","[0,0,0,0,0,0,0,0,0,0]","[0,0,0,0,0,0,0,0,0,0]","[1.1347999999998137,1.88409999999962,2.735099999999619,3.451400000000376,4.251599999999627,4.966999999999999,5.51470000000019,6.1845,6.5314000000003745,7.3984999999999985]","[""blk1"",""blk2"",""blk5"",""blk4"",""blk6"",""blk7"",""blk3""]","[1,1,0,1,0,0,0]",0,95.7741,96.7707,7,0,7,0,1