instructions.started,instructions.stopped,key_resp.keys,mouse.x,mouse.y,mouse.leftButton,mouse.midButton,mouse.rightButton,mouse.time,participant,session,date,expName,psychopyVersion,OS,frameRate,ISI.started,positions,ISI.stopped,corsi_present.started,corsi_present.stopped,block_sequence.thisRepN,block_sequence.thisTrialN,block_sequence.thisN,block_sequence.thisIndex,block_sequence.ran,corsi_respond.started,corsi_respond.stopped,corsi_mouse.x,corsi_mouse.y,corsi_mouse.leftButton,corsi_mouse.midButton,corsi_mouse.rightButton,corsi_mouse.time,corsi_mouse.clicked_name,correct_list,corsi_correct,feedback.started,feedback.stopped,corsi_task.thisRepN,corsi_task.thisTrialN,corsi_task.thisN,corsi_task.thisIndex,corsi_task.ran
0,1.166,,-0.385833333,-0.141666667,1,0,0,1.164,309340,001,2023-12-20_11h18.03.678,corsi_blocks,2023.2.2,Win32,60.0240096,,,,,,,,,,,,,,,,,,,,,,,,,,,,
,,,,,,,,,309340,001,2023-12-20_11h18.03.678,corsi_blocks,2023.2.2,Win32,60.0240096,1.171,"[[-0.3575,-0.05625],[0.54,0.03625],[-0.35125,0.36625],[-0.6025,0.0725],[0.6375,0.27375],[0.30125,-0.0175],[-0.26625,0.235],[0.22,0.2425],[-0.18625,0.41125]]",1.667,1.668,2.169,0,0,0,0,1,,,,,,,,,,,,,,,,,,
,,,,,,,,,309340,001,2023-12-20_11h18.03.678,corsi_blocks,2023.2.2,Win32,60.0240096,,,,2.169,2.684,1,0,1,0,1,,,,,,,,,,,,,,,,,,
,,,,,,,,,309340,001,2023-12-20_11h18.03.678,corsi_blocks,2023.2.2,Win32,60.0240096,,,,2.684,3.17,2,0,2,0,1,,,,,,,,,,,,,,,,,,
,,,,,,,,,309340,001,2023-12-20_11h18.03.678,corsi_blocks,2023.2.2,Win32,60.0240096,,,,,,,,,,,3.171,6.878,"[-0.3541666666666667,0.5275,-0.39166666666666666,0.49083333333333334]","[-0.08583333333333333,0.050833333333333335,0.3325,-0.4191666666666667]","[1,1,1,1]","[0,0,0,0]","[0,0,0,0]","[0.7140000000000004,1.466000000000001,2.249999999999999,3.7029999999999985]","[""blk1"",""blk2"",""blk3""]","[1,1,1]",1,6.879,7.879,0,0,0,0,1
,,,,,,,,,309340,001,2023-12-20_11h18.03.678,corsi_blocks,2023.2.2,Win32,60.0240096,7.879,"[[-0.09875,0.065],[0.62875,-0.1825],[-0.24625,0.04375],[0.365,-0.27625],[-0.01875,0.235],[0.0675,0.07375],[-0.68625,-0.225],[0.54,0.03625],[-0.12125,-0.12625]]",8.379,8.38,8.881,0,0,0,0,1,,,,,,,,,,,,,,,,,,
,,,,,,,,,309340,001,2023-12-20_11h18.03.678,corsi_blocks,2023.2.2,Win32,60.0240096,,,,8.882,9.381,1,0,1,0,1,,,,,,,,,,,,,,,,,,
,,,,,,,,,309340,001,2023-12-20_11h18.03.678,corsi_blocks,2023.2.2,Win32,60.0240096,,,,9.382,9.883,2,0,2,0,1,,,,,,,,,,,,,,,,,,
,,,,,,,,,309340,001,2023-12-20_11h18.03.678,corsi_blocks,2023.2.2,Win32,60.0240096,,,,9.883,10.384,3,0,3,0,1,,,,,,,,,,,,,,,,,,
,,,,,,,,,309340,001,2023-12-20_11h18.03.678,corsi_blocks,2023.2.2,Win32,60.0240096,,,,,,,,,,,10.384,15.026,"[-0.10166666666666667,0.7391666666666666,0.7025,0.6883333333333334,0.6783333333333333,-0.25333333333333335,0.3541666666666667,0.48583333333333334]","[0.06,-0.2,-0.1975,-0.19666666666666666,-0.19666666666666666,0.035833333333333335,-0.2625,-0.3958333333333333]","[1,1,1,1,1,1,1,1]","[0,0,0,0,0,0,0,0]","[0,0,0,0,0,0,0,0]","[0.6660000000000004,1.2170000000000005,1.5180000000000007,1.7509999999999994,2.0020000000000007,2.953999999999999,3.6889999999999983,4.639999999999999]","[""blk1"",""blk2"",""blk3"",""blk4""]","[1,1,1,1]",1,15.026,16.028,1,0,1,0,1
,,,,,,,,,309340,001,2023-12-20_11h18.03.678,corsi_blocks,2023.2.2,Win32,60.0240096,16.029,"[[-0.09875,0.065],[0.19375,-0.17125],[0.4625,0.35875],[-0.0225,0.395],[-0.26625,0.235],[0.22,0.2425],[0.45375,0.175],[0.1925,-0.295],[-0.18625,0.41125]]",16.528,16.529,17.029,0,0,0,0,1,,,,,,,,,,,,,,,,,,
,,,,,,,,,309340,001,2023-12-20_11h18.03.678,corsi_blocks,2023.2.2,Win32,60.0240096,,,,17.029,17.53,1,0,1,0,1,,,,,,,,,,,,,,,,,,
,,,,,,,,,309340,001,2023-12-20_11h18.03.678,corsi_blocks,2023.2.2,Win32,60.0240096,,,,17.531,18.031,2,0,2,0,1,,,,,,,,,,,,,,,,,,
,,,,,,,,,309340,001,2023-12-20_11h18.03.678,corsi_blocks,2023.2.2,Win32,60.0240096,,,,18.032,18.532,3,0,3,0,1,,,,,,,,,,,,,,,,,,
,,,,,,,,,309340,001,2023-12-20_11h18.03.678,corsi_blocks,2023.2.2,Win32,60.0240096,,,,18.532,19.032,4,0,4,0,1,,,,,,,,,,,,,,,,,,
,,,,,,,,,309340,001,2023-12-20_11h18.03.678,corsi_blocks,2023.2.2,Win32,60.0240096,,,,,,,,,,,19.033,24.877,"[-0.10333333333333333,0.19083333333333333,0.43333333333333335,-0.10333333333333333,-0.035833333333333335,-0.23083333333333333,0.65,0.6266666666666667,0.6025,0.5941666666666666,0.5458333333333333]","[0.0325,-0.15333333333333332,0.36583333333333334,0.3908333333333333,0.38333333333333336,0.2791666666666667,-0.49916666666666665,-0.4625,-0.45416666666666666,-0.4508333333333333,-0.4225]","[1,1,1,1,1,1,1,1,1,1,1]","[0,0,0,0,0,0,0,0,0,0,0]","[0,0,0,0,0,0,0,0,0,0,0]","[0.7339999999999982,1.418999999999997,2.353999999999999,3.1549999999999976,3.472999999999999,3.956999999999997,4.709,4.908999999999999,5.158999999999999,5.443999999999999,5.843999999999998]","[""blk1"",""blk2"",""blk3"",""blk4"",""blk5""]","[1,1,1,1,1]",1,24.877,25.879,2,0,2,0,1
,,,,,,,,,309340,001,2023-12-20_11h18.03.678,corsi_blocks,2023.2.2,Win32,60.0240096,25.88,"[[0.54,0.03625],[0.30125,-0.0175],[-0.24625,0.04375],[0.1925,-0.295],[0.28875,0.39875],[-0.16125,-0.28],[0.4125,-0.1325],[0.45375,0.175],[-0.01125,-0.295]]",26.38,26.382,26.881,0,0,0,0,1,,,,,,,,,,,,,,,,,,
,,,,,,,,,309340,001,2023-12-20_11h18.03.678,corsi_blocks,2023.2.2,Win32,60.0240096,,,,26.881,27.381,1,0,1,0,1,,,,,,,,,,,,,,,,,,
,,,,,,,,,309340,001,2023-12-20_11h18.03.678,corsi_blocks,2023.2.2,Win32,60.0240096,,,,27.382,27.883,2,0,2,0,1,,,,,,,,,,,,,,,,,,
,,,,,,,,,309340,001,2023-12-20_11h18.03.678,corsi_blocks,2023.2.2,Win32,60.0240096,,,,27.883,28.383,3,0,3,0,1,,,,,,,,,,,,,,,,,,
,,,,,,,,,309340,001,2023-12-20_11h18.03.678,corsi_blocks,2023.2.2,Win32,60.0240096,,,,28.384,28.886,4,0,4,0,1,,,,,,,,,,,,,,,,,,
,,,,,,,,,309340,001,2023-12-20_11h18.03.678,corsi_blocks,2023.2.2,Win32,60.0240096,,,,28.888,29.385,5,0,5,0,1,,,,,,,,,,,,,,,,,,
,,,,,,,,,309340,001,2023-12-20_11h18.03.678,corsi_blocks,2023.2.2,Win32,60.0240096,,,,,,,,,,,29.386,34.244,"[0.535,0.31833333333333336,-0.21833333333333332,0.17666666666666667,0.24166666666666667,-0.1775,0.48083333333333333]","[0.03333333333333333,0.014166666666666666,0.03666666666666667,-0.31583333333333335,0.4066666666666667,-0.25,-0.39]","[1,1,1,1,1,1,1]","[0,0,0,0,0,0,0]","[0,0,0,0,0,0,0]","[0.5,1.1000000000000014,1.7860000000000014,2.503,3.338000000000001,3.956000000000003,4.856999999999999]","[""blk1"",""blk2"",""blk3"",""blk4"",""blk5"",""blk6""]","[1,1,1,1,1,1]",1,34.245,35.246,3,0,3,0,1
,,,,,,,,,309340,001,2023-12-20_11h18.03.678,corsi_blocks,2023.2.2,Win32,60.0240096,35.247,"[[-0.45875,-0.3],[0.4625,0.35875],[-0.16125,-0.28],[0.28875,0.39875],[0.6375,0.27375],[-0.3575,-0.05625],[0.25625,0.0975],[0.0675,0.07375],[-0.01125,-0.295]]",35.747,35.749,36.248,0,0,0,0,1,,,,,,,,,,,,,,,,,,
,,,,,,,,,309340,001,2023-12-20_11h18.03.678,corsi_blocks,2023.2.2,Win32,60.0240096,,,,36.248,36.749,1,0,1,0,1,,,,,,,,,,,,,,,,,,
,,,,,,,,,309340,001,2023-12-20_11h18.03.678,corsi_blocks,2023.2.2,Win32,60.0240096,,,,36.749,37.251,2,0,2,0,1,,,,,,,,,,,,,,,,,,
,,,,,,,,,309340,001,2023-12-20_11h18.03.678,corsi_blocks,2023.2.2,Win32,60.0240096,,,,37.251,37.751,3,0,3,0,1,,,,,,,,,,,,,,,,,,
,,,,,,,,,309340,001,2023-12-20_11h18.03.678,corsi_blocks,2023.2.2,Win32,60.0240096,,,,37.751,38.252,4,0,4,0,1,,,,,,,,,,,,,,,,,,
,,,,,,,,,309340,001,2023-12-20_11h18.03.678,corsi_blocks,2023.2.2,Win32,60.0240096,,,,38.252,38.753,5,0,5,0,1,,,,,,,,,,,,,,,,,,
,,,,,,,,,309340,001,2023-12-20_11h18.03.678,corsi_blocks,2023.2.2,Win32,60.0240096,,,,38.753,39.253,6,0,6,0,1,,,,,,,,,,,,,,,,,,
,,,,,,,,,309340,001,2023-12-20_11h18.03.678,corsi_blocks,2023.2.2,Win32,60.0240096,,,,,,,,,,,39.254,47.369,"[-0.44666666666666666,0.48,0.44416666666666665,0.3675,0.4483333333333333,0.2791666666666667,0.655,0.05,0.21666666666666667,-0.17916666666666667,0.5675]","[-0.29,0.2783333333333333,0.30083333333333334,0.33666666666666667,0.3333333333333333,0.36916666666666664,0.24583333333333332,0.0925,0.09083333333333334,-0.2991666666666667,-0.4141666666666667]","[1,1,1,1,1,1,1,1,1,1,1]","[0,0,0,0,0,0,0,0,0,0,0]","[0,0,0,0,0,0,0,0,0,0,0]","[1.384999999999998,2.8870000000000005,3.1880000000000024,3.5219999999999985,3.7719999999999985,4.256999999999998,4.9239999999999995,5.776000000000003,6.292999999999999,7.195999999999998,8.113999999999997]","[""blk1"",""blk2"",""blk4"",""blk5"",""blk8"",""blk7"",""blk3""]","[1,1,0,0,0,0,0]",0,47.37,48.371,4,0,4,0,1
,,,,,,,,,309340,001,2023-12-20_11h18.03.678,corsi_blocks,2023.2.2,Win32,60.0240096,48.371,"[[-0.12125,-0.12625],[-0.45875,-0.3],[-0.68625,-0.225],[-0.285,-0.27125],[0.62875,-0.1825],[-0.4075,0.11875],[-0.26625,0.235],[0.45375,0.175],[-0.09875,0.065]]",48.872,48.873,49.372,0,0,0,0,1,,,,,,,,,,,,,,,,,,
,,,,,,,,,309340,001,2023-12-20_11h18.03.678,corsi_blocks,2023.2.2,Win32,60.0240096,,,,49.373,49.874,1,0,1,0,1,,,,,,,,,,,,,,,,,,
,,,,,,,,,309340,001,2023-12-20_11h18.03.678,corsi_blocks,2023.2.2,Win32,60.0240096,,,,49.874,50.374,2,0,2,0,1,,,,,,,,,,,,,,,,,,
,,,,,,,,,309340,001,2023-12-20_11h18.03.678,corsi_blocks,2023.2.2,Win32,60.0240096,,,,50.375,50.876,3,0,3,0,1,,,,,,,,,,,,,,,,,,
,,,,,,,,,309340,001,2023-12-20_11h18.03.678,corsi_blocks,2023.2.2,Win32,60.0240096,,,,50.876,51.376,4,0,4,0,1,,,,,,,,,,,,,,,,,,
,,,,,,,,,309340,001,2023-12-20_11h18.03.678,corsi_blocks,2023.2.2,Win32,60.0240096,,,,51.377,51.878,5,0,5,0,1,,,,,,,,,,,,,,,,,,
,,,,,,,,,309340,001,2023-12-20_11h18.03.678,corsi_blocks,2023.2.2,Win32,60.0240096,,,,51.878,52.378,6,0,6,0,1,,,,,,,,,,,,,,,,,,
,,,,,,,,,309340,001,2023-12-20_11h18.03.678,corsi_blocks,2023.2.2,Win32,60.0240096,,,,,,,,,,,52.378,58.824,"[-0.16,-0.6758333333333333,-0.48083333333333333,-0.25666666666666665,0.6525,-0.39416666666666667,-0.2225,0.5891666666666666,0.5758333333333333]","[-0.10083333333333333,-0.19166666666666668,-0.31916666666666665,-0.3,-0.20083333333333334,0.11583333333333333,0.22416666666666665,-0.43666666666666665,-0.42333333333333334]","[1,1,1,1,1,1,1,1,1]","[0,0,0,0,0,0,0,0,0]","[0,0,0,0,0,0,0,0,0]","[1.4179999999999993,2.3029999999999973,2.854999999999997,3.271000000000001,4.1569999999999965,4.857999999999997,5.225999999999999,6.110999999999997,6.445]","[""blk1"",""blk3"",""blk2"",""blk4"",""blk5"",""blk6"",""blk7""]","[1,0,0,1,1,1,1]",0,58.825,59.827,5,0,5,0,1
,,,,,,,,,309340,001,2023-12-20_11h18.03.678,corsi_blocks,2023.2.2,Win32,60.0240096,59.831,"[[0.03125,-0.41],[-0.35125,0.36625],[-0.24625,0.04375],[-0.16125,-0.28],[0.57875,-0.31375],[-0.4075,0.11875],[0.16625,0.3825],[-0.12125,-0.12625],[0.0675,0.07375]]",60.327,60.331,60.827,0,0,0,0,1,,,,,,,,,,,,,,,,,,
,,,,,,,,,309340,001,2023-12-20_11h18.03.678,corsi_blocks,2023.2.2,Win32,60.0240096,,,,60.828,61.329,1,0,1,0,1,,,,,,,,,,,,,,,,,,
,,,,,,,,,309340,001,2023-12-20_11h18.03.678,corsi_blocks,2023.2.2,Win32,60.0240096,,,,61.329,61.829,2,0,2,0,1,,,,,,,,,,,,,,,,,,
,,,,,,,,,309340,001,2023-12-20_11h18.03.678,corsi_blocks,2023.2.2,Win32,60.0240096,,,,61.83,62.331,3,0,3,0,1,,,,,,,,,,,,,,,,,,
,,,,,,,,,309340,001,2023-12-20_11h18.03.678,corsi_blocks,2023.2.2,Win32,60.0240096,,,,62.331,62.831,4,0,4,0,1,,,,,,,,,,,,,,,,,,
,,,,,,,,,309340,001,2023-12-20_11h18.03.678,corsi_blocks,2023.2.2,Win32,60.0240096,,,,62.831,63.332,5,0,5,0,1,,,,,,,,,,,,,,,,,,
,,,,,,,,,309340,001,2023-12-20_11h18.03.678,corsi_blocks,2023.2.2,Win32,60.0240096,,,,63.332,63.833,6,0,6,0,1,,,,,,,,,,,,,,,,,,
,,,,,,,,,309340,001,2023-12-20_11h18.03.678,corsi_blocks,2023.2.2,Win32,60.0240096,,,,,,,,,,,63.834,73.084,"[0.06666666666666667,0.06666666666666667,-0.36666666666666664,0.0525,-0.23416666666666666,-0.20416666666666666,-0.435,-0.39416666666666667,0.17083333333333334,0.43416666666666665]","[0.09416666666666666,0.09416666666666666,0.36666666666666664,-0.435,0.04083333333333333,-0.24333333333333335,0.17333333333333334,0.10666666666666667,0.405,-0.41]","[1,1,1,1,1,1,1,1,1,1]","[0,0,0,0,0,0,0,0,0,0]","[0,0,0,0,0,0,0,0,0,0]","[4.106000000000009,4.239000000000004,4.991,5.975999999999999,6.5930000000000035,7.161000000000001,7.746000000000009,7.996000000000009,8.329999999999998,9.24900000000001]","[""blk9"",""blk9"",""blk2"",""blk1"",""blk3"",""blk4"",""blk6"",""blk7""]","[0,1,0,0,0,1,1]",0,73.085,74.085,6,0,6,0,1
,,,,,,,,,309340,001,2023-12-20_11h18.03.678,corsi_blocks,2023.2.2,Win32,60.0240096,74.085,"[[0.57875,-0.31375],[0.0675,0.07375],[-0.0225,0.395],[0.22,0.2425],[-0.4075,0.11875],[-0.35125,0.36625],[0.30125,-0.0175],[0.05875,-0.0575],[-0.3575,-0.05625]]",74.586,74.587,75.087,0,0,0,0,1,,,,,,,,,,,,,,,,,,
,,,,,,,,,309340,001,2023-12-20_11h18.03.678,corsi_blocks,2023.2.2,Win32,60.0240096,,,,75.087,75.587,1,0,1,0,1,,,,,,,,,,,,,,,,,,
,,,,,,,,,309340,001,2023-12-20_11h18.03.678,corsi_blocks,2023.2.2,Win32,60.0240096,,,,75.588,76.089,2,0,2,0,1,,,,,,,,,,,,,,,,,,
,,,,,,,,,309340,001,2023-12-20_11h18.03.678,corsi_blocks,2023.2.2,Win32,60.0240096,,,,76.09,76.59,3,0,3,0,1,,,,,,,,,,,,,,,,,,
,,,,,,,,,309340,001,2023-12-20_11h18.03.678,corsi_blocks,2023.2.2,Win32,60.0240096,,,,76.59,77.091,4,0,4,0,1,,,,,,,,,,,,,,,,,,
,,,,,,,,,309340,001,2023-12-20_11h18.03.678,corsi_blocks,2023.2.2,Win32,60.0240096,,,,77.092,77.592,5,0,5,0,1,,,,,,,,,,,,,,,,,,
,,,,,,,,,309340,001,2023-12-20_11h18.03.678,corsi_blocks,2023.2.2,Win32,60.0240096,,,,77.592,78.093,6,0,6,0,1,,,,,,,,,,,,,,,,,,
,,,,,,,,,309340,001,2023-12-20_11h18.03.678,corsi_blocks,2023.2.2,Win32,60.0240096,,,,,,,,,,,78.093,85.173,"[0.4716666666666667,0.5658333333333333,0.04,-0.016666666666666666,0.005833333333333334,0.2275,0.2841666666666667,-0.4166666666666667,-0.36583333333333334,-0.35583333333333333,0.43833333333333335]","[-0.195,-0.3016666666666667,0.11583333333333333,0.3383333333333333,0.38666666666666666,0.2608333333333333,-0.02666666666666667,0.16833333333333333,0.31083333333333335,0.325,-0.42333333333333334]","[1,1,1,1,1,1,1,1,1,1,1]","[0,0,0,0,0,0,0,0,0,0,0]","[0,0,0,0,0,0,0,0,0,0,0]","[2.0859999999999985,2.469999999999999,3.055000000000007,3.405000000000001,4.307000000000002,4.707000000000008,5.174999999999997,5.742999999999995,6.076000000000008,6.344000000000008,7.079000000000008]","[""blk1"",""blk2"",""blk3"",""blk4"",""blk7"",""blk5"",""blk6""]","[1,1,1,1,0,0,0]",0,85.173,86.174,7,0,7,0,1