instructions.started,instructions.stopped,key_resp.keys,key_resp.rt,key_resp.duration,mouse.x,mouse.y,mouse.leftButton,mouse.midButton,mouse.rightButton,mouse.time,participant,session,date,expName,psychopyVersion,OS,frameRate,ISI.started,positions,ISI.stopped,corsi_present.started,corsi_present.stopped,block_sequence.thisRepN,block_sequence.thisTrialN,block_sequence.thisN,block_sequence.thisIndex,block_sequence.ran,corsi_respond.started,corsi_respond.stopped,corsi_mouse.x,corsi_mouse.y,corsi_mouse.leftButton,corsi_mouse.midButton,corsi_mouse.rightButton,corsi_mouse.time,corsi_mouse.clicked_name,correct_list,corsi_correct,feedback.started,feedback.stopped,corsi_task.thisRepN,corsi_task.thisTrialN,corsi_task.thisN,corsi_task.thisIndex,corsi_task.ran
0.0012,13.9044,space,13.8776,,,,,,,,353862,001,2023-12-04_15h19.38.329,corsi_blocks,2023.2.2,Win32,59.90534955,,,,,,,,,,,,,,,,,,,,,,,,,,,,
,,,,,,,,,,,353862,001,2023-12-04_15h19.38.329,corsi_blocks,2023.2.2,Win32,59.90534955,13.9332,"[[0.4625,0.35875],[-0.24625,0.04375],[0.45375,0.175],[-0.12125,-0.12625],[0.25625,0.0975],[0.365,-0.27625],[0.4125,-0.1325],[0.0675,0.07375],[-0.675,0.29875]]",14.4072,14.411,14.9086,0,0,0,0,1,,,,,,,,,,,,,,,,,,
,,,,,,,,,,,353862,001,2023-12-04_15h19.38.329,corsi_blocks,2023.2.2,Win32,59.90534955,,,,14.9107,15.4085,1,0,1,0,1,,,,,,,,,,,,,,,,,,
,,,,,,,,,,,353862,001,2023-12-04_15h19.38.329,corsi_blocks,2023.2.2,Win32,59.90534955,,,,15.4099,15.9079,2,0,2,0,1,,,,,,,,,,,,,,,,,,
,,,,,,,,,,,353862,001,2023-12-04_15h19.38.329,corsi_blocks,2023.2.2,Win32,59.90534955,,,,,,,,,,,15.9086,22.6419,"[0.4398148148148148,0.2787036895751953,0.046296296296296294,0.4657407689977575]","[0.17222220809371383,0.11481479362205223,0.05185183772334346,-0.3833333474618417]","[1,1,1,1]","[0,0,0,0]","[0,0,0,0]","[2.2635999999977656,3.9953000000007464,4.845699999999255,6.727000000000004]","[""blk3"",""blk5"",""blk8""]","[0,0,0]",0,22.6444,23.6416,0,0,0,0,1
,,,,,,,,,,,353862,001,2023-12-04_15h19.38.329,corsi_blocks,2023.2.2,Win32,59.90534955,23.6441,"[[-0.18625,0.41125],[0.16625,0.3825],[-0.09875,0.065],[-0.01875,0.235],[0.4625,0.35875],[0.45375,0.175],[-0.26625,0.235],[0.62875,-0.1825],[-0.16125,-0.28]]",24.139,24.1424,24.6398,0,0,0,0,1,,,,,,,,,,,,,,,,,,
,,,,,,,,,,,353862,001,2023-12-04_15h19.38.329,corsi_blocks,2023.2.2,Win32,59.90534955,,,,24.6413,25.1387,1,0,1,0,1,,,,,,,,,,,,,,,,,,
,,,,,,,,,,,353862,001,2023-12-04_15h19.38.329,corsi_blocks,2023.2.2,Win32,59.90534955,,,,25.1396,25.6382,2,0,2,0,1,,,,,,,,,,,,,,,,,,
,,,,,,,,,,,353862,001,2023-12-04_15h19.38.329,corsi_blocks,2023.2.2,Win32,59.90534955,,,,,,,,,,,25.6384,30.0389,"[-0.1712962962962963,0.17314819053367334,-0.06296292057743778,0.44074079725477433]","[0.38148147971541796,0.3712962909981056,0.06111109698260272,-0.41296294883445456]","[1,1,1,1]","[0,0,0,0]","[0,0,0,0]","[0.8839000000022352,1.9648000000007393,3.0480000000000054,4.397499999999997]","[""blk1"",""blk2"",""blk3""]","[1,1,1]",1,30.0417,31.0371,1,0,1,0,1
,,,,,,,,,,,353862,001,2023-12-04_15h19.38.329,corsi_blocks,2023.2.2,Win32,59.90534955,31.0382,"[[-0.3575,-0.05625],[0.03125,-0.41],[0.1925,-0.295],[-0.01875,0.235],[0.54,0.03625],[-0.16125,-0.28],[0.22,0.2425],[-0.12125,-0.12625],[-0.26625,0.235]]",31.5364,31.5375,32.0367,0,0,0,0,1,,,,,,,,,,,,,,,,,,
,,,,,,,,,,,353862,001,2023-12-04_15h19.38.329,corsi_blocks,2023.2.2,Win32,59.90534955,,,,32.0376,32.5381,1,0,1,0,1,,,,,,,,,,,,,,,,,,
,,,,,,,,,,,353862,001,2023-12-04_15h19.38.329,corsi_blocks,2023.2.2,Win32,59.90534955,,,,32.5391,33.0366,2,0,2,0,1,,,,,,,,,,,,,,,,,,
,,,,,,,,,,,353862,001,2023-12-04_15h19.38.329,corsi_blocks,2023.2.2,Win32,59.90534955,,,,33.0372,33.5371,3,0,3,0,1,,,,,,,,,,,,,,,,,,
,,,,,,,,,,,353862,001,2023-12-04_15h19.38.329,corsi_blocks,2023.2.2,Win32,59.90534955,,,,,,,,,,,33.5374,41.9179,"[-0.36851851145426434,0.017592606721100985,0.17222220809371383,0,0.4740740458170573,0.4740740458170573,0.4583333333333333]","[-0.02870372489646629,-0.40185186598036027,-0.30925927338776765,0.2611111005147298,-0.43333336159035013,-0.43333336159035013,-0.3907407831262659]","[1,1,1,1,1,1,1]","[0,0,0,0,0,0,0]","[0,0,0,0,0,0,0]","[0.7131000000014893,1.879800000000742,2.7291000000014947,3.6621999999992596,5.012100000001496,7.22769999999926,8.37710000000149]","[""blk1"",""blk2"",""blk3"",""blk4""]","[1,1,1,1]",1,41.9196,42.9182,2,0,2,0,1
,,,,,,,,,,,353862,001,2023-12-04_15h19.38.329,corsi_blocks,2023.2.2,Win32,59.90534955,42.9193,"[[0.19375,-0.17125],[-0.3575,-0.05625],[-0.24625,0.04375],[0.4625,0.35875],[0.45375,0.175],[-0.285,-0.27125],[0.25625,0.0975],[0.28875,0.39875],[0.30125,-0.0175]]",43.4171,43.4195,43.9269,0,0,0,0,1,,,,,,,,,,,,,,,,,,
,,,,,,,,,,,353862,001,2023-12-04_15h19.38.329,corsi_blocks,2023.2.2,Win32,59.90534955,,,,43.9274,44.418,1,0,1,0,1,,,,,,,,,,,,,,,,,,
,,,,,,,,,,,353862,001,2023-12-04_15h19.38.329,corsi_blocks,2023.2.2,Win32,59.90534955,,,,44.4184,44.9177,2,0,2,0,1,,,,,,,,,,,,,,,,,,
,,,,,,,,,,,353862,001,2023-12-04_15h19.38.329,corsi_blocks,2023.2.2,Win32,59.90534955,,,,44.9188,45.4167,3,0,3,0,1,,,,,,,,,,,,,,,,,,
,,,,,,,,,,,353862,001,2023-12-04_15h19.38.329,corsi_blocks,2023.2.2,Win32,59.90534955,,,,45.4171,45.9167,4,0,4,0,1,,,,,,,,,,,,,,,,,,
,,,,,,,,,,,353862,001,2023-12-04_15h19.38.329,corsi_blocks,2023.2.2,Win32,59.90534955,,,,,,,,,,,45.9168,52.7001,"[0.1490740599455657,-0.35925925219500504,-0.26203699465151187,0.45092589766890917,0.4805556403266059,0.501851823594835,0.48981489958586516]","[-0.16296294883445459,-0.07592593299018012,0.023148148148148147,0.3250000035321271,0.21481480421843352,-0.35185185185185186,-0.3898148006863064]","[1,1,1,1,1,1,1]","[0,0,0,0,0,0,0]","[0,0,0,0,0,0,0]","[0.6831000000015024,1.782500000000013,2.6814999999999998,3.7493000000007584,4.582000000000008,5.7808000000007524,6.781100000001487]","[""blk1"",""blk2"",""blk3"",""blk4"",""blk5""]","[1,1,1,1,1]",1,52.704,53.6982,3,0,3,0,1
,,,,,,,,,,,353862,001,2023-12-04_15h19.38.329,corsi_blocks,2023.2.2,Win32,59.90534955,53.6989,"[[-0.4075,0.11875],[0.25625,0.0975],[-0.285,-0.27125],[-0.01875,0.235],[-0.24625,0.04375],[-0.09875,0.065],[-0.16125,-0.28],[0.6375,0.27375],[0.16625,0.3825]]",54.1983,54.2017,54.6981,0,0,0,0,1,,,,,,,,,,,,,,,,,,
,,,,,,,,,,,353862,001,2023-12-04_15h19.38.329,corsi_blocks,2023.2.2,Win32,59.90534955,,,,54.6985,55.198,1,0,1,0,1,,,,,,,,,,,,,,,,,,
,,,,,,,,,,,353862,001,2023-12-04_15h19.38.329,corsi_blocks,2023.2.2,Win32,59.90534955,,,,55.1984,55.6974,2,0,2,0,1,,,,,,,,,,,,,,,,,,
,,,,,,,,,,,353862,001,2023-12-04_15h19.38.329,corsi_blocks,2023.2.2,Win32,59.90534955,,,,55.6979,56.1975,3,0,3,0,1,,,,,,,,,,,,,,,,,,
,,,,,,,,,,,353862,001,2023-12-04_15h19.38.329,corsi_blocks,2023.2.2,Win32,59.90534955,,,,56.1979,56.6977,4,0,4,0,1,,,,,,,,,,,,,,,,,,
,,,,,,,,,,,353862,001,2023-12-04_15h19.38.329,corsi_blocks,2023.2.2,Win32,59.90534955,,,,56.6987,57.1982,5,0,5,0,1,,,,,,,,,,,,,,,,,,
,,,,,,,,,,,353862,001,2023-12-04_15h19.38.329,corsi_blocks,2023.2.2,Win32,59.90534955,,,,,,,,,,,57.1984,63.6477,"[-0.4148148077505606,0.22685185185185186,-0.25462962962962965,-0.024074059945565683,-0.22685185185185186,-0.11018519931369358,0.5120370652940538]","[0.10277776364926938,0.08425924513075086,-0.2722222363507306,0.22870369310732241,0.043518525582772714,0.04907406700981988,-0.3898148006863064]","[1,1,1,1,1,1,1]","[0,0,0,0,0,0,0]","[0,0,0,0,0,0,0]","[0.413800000000748,1.6644000000022316,2.7660000000000053,3.8799999999999955,4.747,5.4136000000014945,6.446400000002242]","[""blk1"",""blk2"",""blk3"",""blk4"",""blk5"",""blk6""]","[1,1,1,1,1,1]",1,63.6506,64.646,4,0,4,0,1
,,,,,,,,,,,353862,001,2023-12-04_15h19.38.329,corsi_blocks,2023.2.2,Win32,59.90534955,64.647,"[[-0.09875,0.065],[-0.01875,0.235],[-0.35125,0.36625],[-0.3575,-0.05625],[-0.45875,-0.3],[-0.285,-0.27125],[0.16625,0.3825],[0.365,-0.27625],[0.22,0.2425]]",65.1459,65.1484,65.6447,0,0,0,0,1,,,,,,,,,,,,,,,,,,
,,,,,,,,,,,353862,001,2023-12-04_15h19.38.329,corsi_blocks,2023.2.2,Win32,59.90534955,,,,65.6451,66.1454,1,0,1,0,1,,,,,,,,,,,,,,,,,,
,,,,,,,,,,,353862,001,2023-12-04_15h19.38.329,corsi_blocks,2023.2.2,Win32,59.90534955,,,,66.1459,66.6459,2,0,2,0,1,,,,,,,,,,,,,,,,,,
,,,,,,,,,,,353862,001,2023-12-04_15h19.38.329,corsi_blocks,2023.2.2,Win32,59.90534955,,,,66.6469,67.1453,3,0,3,0,1,,,,,,,,,,,,,,,,,,
,,,,,,,,,,,353862,001,2023-12-04_15h19.38.329,corsi_blocks,2023.2.2,Win32,59.90534955,,,,67.1462,67.6452,4,0,4,0,1,,,,,,,,,,,,,,,,,,
,,,,,,,,,,,353862,001,2023-12-04_15h19.38.329,corsi_blocks,2023.2.2,Win32,59.90534955,,,,67.6463,68.1451,5,0,5,0,1,,,,,,,,,,,,,,,,,,
,,,,,,,,,,,353862,001,2023-12-04_15h19.38.329,corsi_blocks,2023.2.2,Win32,59.90534955,,,,68.1461,68.6442,6,0,6,0,1,,,,,,,,,,,,,,,,,,
,,,,,,,,,,,353862,001,2023-12-04_15h19.38.329,corsi_blocks,2023.2.2,Win32,59.90534955,,,,,,,,,,,68.6444,79.0098,"[-0.03333331920482494,-0.32407407407407407,-0.34074073367648655,-0.4499999858714916,-0.2787036895751953,0.16944447270146124,-0.07407407407407407,0.48888891714590565]","[0.19074072661223235,0.3712962909981056,-0.09722222222222222,-0.28055558381257234,-0.28055558381257234,0.35370370193764017,0.03796294883445457,-0.40185186598036027]","[1,1,1,1,1,1,1,1]","[0,0,0,0,0,0,0,0]","[0,0,0,0,0,0,0,0]","[2.2798999999985057,3.129800000000742,3.979300000000734,4.729699999999255,5.446100000001479,6.429899999998511,8.328100000001484,10.361499999999992]","[""blk2"",""blk3"",""blk4"",""blk5"",""blk6"",""blk7"",""blk1""]","[0,0,0,0,0,0,0]",0,79.0123,80.0081,5,0,5,0,1
,,,,,,,,,,,353862,001,2023-12-04_15h19.38.329,corsi_blocks,2023.2.2,Win32,59.90534955,80.0086,"[[0.57875,-0.31375],[0.4625,0.35875],[-0.485,0.34625],[0.6375,0.27375],[0.25625,0.0975],[0.0675,0.07375],[0.30125,-0.0175],[-0.01875,0.235],[-0.6025,0.0725]]",80.508,80.5092,81.0078,0,0,0,0,1,,,,,,,,,,,,,,,,,,
,,,,,,,,,,,353862,001,2023-12-04_15h19.38.329,corsi_blocks,2023.2.2,Win32,59.90534955,,,,81.0083,81.5088,1,0,1,0,1,,,,,,,,,,,,,,,,,,
,,,,,,,,,,,353862,001,2023-12-04_15h19.38.329,corsi_blocks,2023.2.2,Win32,59.90534955,,,,81.5097,82.0076,2,0,2,0,1,,,,,,,,,,,,,,,,,,
,,,,,,,,,,,353862,001,2023-12-04_15h19.38.329,corsi_blocks,2023.2.2,Win32,59.90534955,,,,82.0079,82.5074,3,0,3,0,1,,,,,,,,,,,,,,,,,,
,,,,,,,,,,,353862,001,2023-12-04_15h19.38.329,corsi_blocks,2023.2.2,Win32,59.90534955,,,,82.5079,83.0076,4,0,4,0,1,,,,,,,,,,,,,,,,,,
,,,,,,,,,,,353862,001,2023-12-04_15h19.38.329,corsi_blocks,2023.2.2,Win32,59.90534955,,,,83.008,83.5081,5,0,5,0,1,,,,,,,,,,,,,,,,,,
,,,,,,,,,,,353862,001,2023-12-04_15h19.38.329,corsi_blocks,2023.2.2,Win32,59.90534955,,,,83.5105,84.0074,6,0,6,0,1,,,,,,,,,,,,,,,,,,
,,,,,,,,,,,353862,001,2023-12-04_15h19.38.329,corsi_blocks,2023.2.2,Win32,59.90534955,,,,,,,,,,,84.0076,93.9079,"[0.626851823594835,0.46296296296296297,-0.48796297002721717,0.6277778060347946,0.03425930164478443,0.28148149560998986,0.24537037037037038,0.4500000565140336,0.45092589766890917]","[-0.31574072661223235,0.3324074038752803,0.322222215157968,0.2749999894036187,0.03518517812093099,-0.015740747804994935,0.09351850439001012,-0.3666666525381583,-0.39259260672110097]","[1,1,1,1,1,1,1,1,1]","[0,0,0,0,0,0,0,0,0]","[0,0,0,0,0,0,0,0,0]","[1.5303000000007358,2.414300000000736,3.3296000000014914,4.4879999999999995,5.729699999999255,6.8681000000014905,7.6011999999992526,8.802300000000741,9.895899999998505]","[""blk1"",""blk2"",""blk3"",""blk4"",""blk6"",""blk7"",""blk5""]","[1,1,1,1,0,0,0]",0,93.9103,94.9058,6,0,6,0,1
,,,,,,,,,,,353862,001,2023-12-04_15h19.38.329,corsi_blocks,2023.2.2,Win32,59.90534955,94.9071,"[[0.365,-0.27625],[0.62875,-0.1825],[0.28875,0.39875],[0.30125,-0.0175],[-0.12125,-0.12625],[0.4125,-0.1325],[-0.35125,0.36625],[0.1925,-0.295],[-0.6025,0.0725]]",95.4058,95.409,95.9045,0,0,0,0,1,,,,,,,,,,,,,,,,,,
,,,,,,,,,,,353862,001,2023-12-04_15h19.38.329,corsi_blocks,2023.2.2,Win32,59.90534955,,,,95.9051,96.4049,1,0,1,0,1,,,,,,,,,,,,,,,,,,
,,,,,,,,,,,353862,001,2023-12-04_15h19.38.329,corsi_blocks,2023.2.2,Win32,59.90534955,,,,96.4071,96.9048,2,0,2,0,1,,,,,,,,,,,,,,,,,,
,,,,,,,,,,,353862,001,2023-12-04_15h19.38.329,corsi_blocks,2023.2.2,Win32,59.90534955,,,,96.9057,97.4075,3,0,3,0,1,,,,,,,,,,,,,,,,,,
,,,,,,,,,,,353862,001,2023-12-04_15h19.38.329,corsi_blocks,2023.2.2,Win32,59.90534955,,,,97.409,97.905,4,0,4,0,1,,,,,,,,,,,,,,,,,,
,,,,,,,,,,,353862,001,2023-12-04_15h19.38.329,corsi_blocks,2023.2.2,Win32,59.90534955,,,,97.9061,98.4062,5,0,5,0,1,,,,,,,,,,,,,,,,,,
,,,,,,,,,,,353862,001,2023-12-04_15h19.38.329,corsi_blocks,2023.2.2,Win32,59.90534955,,,,98.408,98.9072,6,0,6,0,1,,,,,,,,,,,,,,,,,,
,,,,,,,,,,,353862,001,2023-12-04_15h19.38.329,corsi_blocks,2023.2.2,Win32,59.90534955,,,,,,,,,,,98.9074,108.3694,"[0.34444441618742766,0.677777749520761,0.30000008477105033,0.3074073791503906,-0.12962962962962962,0.3879630477340133,-0.3509259047331633,0.5490741023310909]","[-0.2981481905336733,-0.14814814814814814,0.3972222186900951,-0.014814836007577402,-0.11666665253815828,-0.15833331920482493,0.3416666631345396,-0.375]","[1,1,1,1,1,1,1,1]","[0,0,0,0,0,0,0,0]","[0,0,0,0,0,0,0,0]","[2.21180000000075,3.045199999999255,4.31190000000224,5.144600000001489,5.993900000002242,7.011800000000747,8.360500000000002,9.460400000002238]","[""blk1"",""blk2"",""blk3"",""blk4"",""blk5"",""blk6"",""blk7""]","[1,1,1,1,1,1,1]",1,108.3705,109.3684,7,0,7,0,1
,,,,,,,,,,,353862,001,2023-12-04_15h19.38.329,corsi_blocks,2023.2.2,Win32,59.90534955,109.3694,"[[-0.485,0.34625],[-0.45875,-0.3],[0.30125,-0.0175],[0.19375,-0.17125],[0.4625,0.35875],[-0.3575,-0.05625],[-0.12125,-0.12625],[0.22,0.2425],[-0.6025,0.0725]]",109.8688,109.8723,110.3685,0,0,0,0,1,,,,,,,,,,,,,,,,,,
,,,,,,,,,,,353862,001,2023-12-04_15h19.38.329,corsi_blocks,2023.2.2,Win32,59.90534955,,,,110.3698,110.8685,1,0,1,0,1,,,,,,,,,,,,,,,,,,
,,,,,,,,,,,353862,001,2023-12-04_15h19.38.329,corsi_blocks,2023.2.2,Win32,59.90534955,,,,110.8695,111.3691,2,0,2,0,1,,,,,,,,,,,,,,,,,,
,,,,,,,,,,,353862,001,2023-12-04_15h19.38.329,corsi_blocks,2023.2.2,Win32,59.90534955,,,,111.3704,111.8687,3,0,3,0,1,,,,,,,,,,,,,,,,,,
,,,,,,,,,,,353862,001,2023-12-04_15h19.38.329,corsi_blocks,2023.2.2,Win32,59.90534955,,,,111.8712,112.3675,4,0,4,0,1,,,,,,,,,,,,,,,,,,
,,,,,,,,,,,353862,001,2023-12-04_15h19.38.329,corsi_blocks,2023.2.2,Win32,59.90534955,,,,112.368,112.8674,5,0,5,0,1,,,,,,,,,,,,,,,,,,
,,,,,,,,,,,353862,001,2023-12-04_15h19.38.329,corsi_blocks,2023.2.2,Win32,59.90534955,,,,112.8681,113.3673,6,0,6,0,1,,,,,,,,,,,,,,,,,,
,,,,,,,,,,,353862,001,2023-12-04_15h19.38.329,corsi_blocks,2023.2.2,Win32,59.90534955,,,,113.3681,113.8685,7,0,7,0,1,,,,,,,,,,,,,,,,,,
,,,,,,,,,,,353862,001,2023-12-04_15h19.38.329,corsi_blocks,2023.2.2,Win32,59.90534955,,,,,,,,,,,113.869,124.1821,"[-0.4592592451307509,-0.445370356241862,0.19444444444444445,0.2777777777777778,0.466666751437717,-0.3601851639924226,-0.13703699465151187,0.2583333474618417,0.47777783429181137,0.47777783429181137]","[0.37962962962962965,-0.30277782016330296,-0.1611111252396195,0.019444430315936054,0.38796295943083586,-0.061111132303873696,-0.12592591179741752,0.2833333368654604,-0.3722222646077474,-0.3898148006863064]","[1,1,1,1,1,1,1,1,1,1]","[0,0,0,0,0,0,0,0,0,0]","[0,0,0,0,0,0,0,0,0,0]","[1.5786000000014866,2.560600000001486,3.5775000000000006,4.260699999999261,5.111399999998511,6.310300000000737,7.060300000000737,7.859399999998502,9.026500000000013,10.308600000001476]","[""blk1"",""blk2"",""blk4"",""blk3"",""blk5"",""blk6"",""blk7"",""blk8""]","[1,1,0,0,1,1,1,1]",0,124.1846,125.181,8,0,8,0,1