instructions.started,instructions.stopped,key_resp.keys,mouse.x,mouse.y,mouse.leftButton,mouse.midButton,mouse.rightButton,mouse.time,participant,session,date,expName,psychopyVersion,OS,frameRate,ISI.started,positions,ISI.stopped,corsi_present.started,corsi_present.stopped,block_sequence.thisRepN,block_sequence.thisTrialN,block_sequence.thisN,block_sequence.thisIndex,block_sequence.ran,corsi_respond.started,corsi_respond.stopped,corsi_mouse.x,corsi_mouse.y,corsi_mouse.leftButton,corsi_mouse.midButton,corsi_mouse.rightButton,corsi_mouse.time,corsi_mouse.clicked_name,correct_list,corsi_correct,feedback.started,feedback.stopped,corsi_task.thisRepN,corsi_task.thisTrialN,corsi_task.thisN,corsi_task.thisIndex,corsi_task.ran
0.0001,0.8605,,-0.136988403,-0.166041881,1,0,0,0.8577,468777,001,2023-12-17_15h43.51.128,corsi_blocks,2023.2.2,Win32,166.6666667,,,,,,,,,,,,,,,,,,,,,,,,,,,,
,,,,,,,,,468777,001,2023-12-17_15h43.51.128,corsi_blocks,2023.2.2,Win32,166.6666667,0.8669,"[[-0.45875,-0.3],[0.30125,-0.0175],[-0.09875,0.065],[0.6375,0.27375],[0.28875,0.39875],[0.54,0.03625],[0.365,-0.27625],[-0.6025,0.0725],[0.62875,-0.1825]]",1.3633,1.3641,1.8606,0,0,0,0,1,,,,,,,,,,,,,,,,,,
,,,,,,,,,468777,001,2023-12-17_15h43.51.128,corsi_blocks,2023.2.2,Win32,166.6666667,,,,1.861,2.3573,1,0,1,0,1,,,,,,,,,,,,,,,,,,
,,,,,,,,,468777,001,2023-12-17_15h43.51.128,corsi_blocks,2023.2.2,Win32,166.6666667,,,,2.3576,2.8544,2,0,2,0,1,,,,,,,,,,,,,,,,,,
,,,,,,,,,468777,001,2023-12-17_15h43.51.128,corsi_blocks,2023.2.2,Win32,166.6666667,,,,,,,,,,,2.8551,19.7301,"[-0.0951265229615745,0.26038741707913543,-0.4525148200452495,-0.44814119633940075,0.3334895726555178,0.36535461482983833,0.35410812935654873,0.2872539831302718,0.30349894472674555,-0.1544829550030752,-0.12136832239925023,-0.11699467009210988,0.6377694470477976,0.5484224442801078,0.5271790065604499,0.6159013571198454,0.2666354264292409,-0.5618556701030928,0.5190565829647962]","[0.04576692876127577,-0.008591084359623946,-0.2703842549203374,-0.2635114217541881,-0.012339912850720478,-0.27350831679797327,-0.28288038802571464,-0.06232427366447985,-0.02546081256955834,0.07950638518114457,0.11636987487735766,0.10262417994376757,-0.21290223712438497,-0.029834464876698687,0.04389251451572751,0.2688222382821652,0.39628240697944733,0.09012807543968193,-0.4240862230552952]","[1,1,1,1,1,1,1,1,1,0,1,1,1,1,1,1,1,1,1]","[0,0,0,0,0,0,0,0,0,0,0,0,0,0,0,0,0,0,0]","[0,0,0,0,0,0,0,0,0,1,0,0,0,0,0,0,0,0,0]","[3.4170000000000007,4.610699999988079,5.513800000011922,8.38019999998808,9.374199999988079,10.17419999998808,11.2895,11.64730000001192,11.846999999999998,12.362699999988077,13.1445,13.441099999994037,14.19869999998808,14.521999999999998,14.943999999999999,15.262,15.67140000000596,16.27990000000596,16.87390000000596]","[""blk3"",""blk2"",""blk1"",""blk1"",""blk2"",""blk7"",""blk7"",""blk2"",""blk2"",""blk3"",""blk9"",""blk6"",""blk4"",""blk5"",""blk8""]","[0,1,0,0,0,0,0,0,0]",0,19.7306,20.7273,0,0,0,0,1
,,,,,,,,,468777,001,2023-12-17_15h43.51.128,corsi_blocks,2023.2.2,Win32,166.6666667,20.7277,"[[-0.68625,-0.225],[0.05875,-0.0575],[0.4125,-0.1325],[-0.4075,0.11875],[-0.01125,-0.295],[0.4625,0.35875],[-0.26625,0.235],[-0.6025,0.0725],[-0.18625,0.41125]]",21.224,21.2248,21.724,0,0,0,0,1,,,,,,,,,,,,,,,,,,
,,,,,,,,,468777,001,2023-12-17_15h43.51.128,corsi_blocks,2023.2.2,Win32,166.6666667,,,,21.7244,22.2247,1,0,1,0,1,,,,,,,,,,,,,,,,,,
,,,,,,,,,468777,001,2023-12-17_15h43.51.128,corsi_blocks,2023.2.2,Win32,166.6666667,,,,22.2251,22.7215,2,0,2,0,1,,,,,,,,,,,,,,,,,,
,,,,,,,,,468777,001,2023-12-17_15h43.51.128,corsi_blocks,2023.2.2,Win32,166.6666667,,,,,,,,,,,22.7216,25.5698,"[-0.6530771586195598,0.027335226815106608,0.4384567704062207,0.49531396438612935]","[-0.22977196533431934,-0.06232427366447985,-0.15354580508288426,-0.42033739456419866]","[1,1,1,1]","[0,0,0,0]","[0,0,0,0]","[1.1138000000119206,1.6655999999940363,2.1383000000119203,2.8470999999940396]","[""blk1"",""blk2"",""blk3""]","[1,1,1]",1,25.57,26.5697,1,0,1,0,1
,,,,,,,,,468777,001,2023-12-17_15h43.51.128,corsi_blocks,2023.2.2,Win32,166.6666667,26.57,"[[-0.6025,0.0725],[-0.24625,0.04375],[0.57875,-0.31375],[-0.16125,-0.28],[0.22,0.2425],[0.365,-0.27625],[-0.3575,-0.05625],[-0.35125,0.36625],[0.4125,-0.1325]]",27.0667,27.0674,27.5663,0,0,0,0,1,,,,,,,,,,,,,,,,,,
,,,,,,,,,468777,001,2023-12-17_15h43.51.128,corsi_blocks,2023.2.2,Win32,166.6666667,,,,27.5665,28.0674,1,0,1,0,1,,,,,,,,,,,,,,,,,,
,,,,,,,,,468777,001,2023-12-17_15h43.51.128,corsi_blocks,2023.2.2,Win32,166.6666667,,,,28.0677,28.5636,2,0,2,0,1,,,,,,,,,,,,,,,,,,
,,,,,,,,,468777,001,2023-12-17_15h43.51.128,corsi_blocks,2023.2.2,Win32,166.6666667,,,,28.5638,29.0618,3,0,3,0,1,,,,,,,,,,,,,,,,,,
,,,,,,,,,468777,001,2023-12-17_15h43.51.128,corsi_blocks,2023.2.2,Win32,166.6666667,,,,,,,,,,,29.0619,31.8338,"[-0.584348641049672,-0.22945952482500587,-0.16073102155576383,0.5659169391035028,0.550296858525656]","[0.04639175257731959,0.04514213354652355,-0.23914403656206068,-0.32349267761173267,-0.4159637994596415]","[1,1,1,1,1]","[0,0,0,0,0]","[0,0,0,0,0]","[1.1558000000119222,1.5012000000178816,1.865000000000002,2.313300000011921,2.7712000000178776]","[""blk1"",""blk2"",""blk4"",""blk3""]","[1,1,0,0]",0,31.8341,32.8302,2,0,2,0,1
,,,,,,,,,468777,001,2023-12-17_15h43.51.128,corsi_blocks,2023.2.2,Win32,166.6666667,32.8304,"[[-0.6025,0.0725],[-0.68625,-0.225],[-0.45875,-0.3],[-0.26625,0.235],[-0.55125,-0.13375],[-0.0225,0.395],[-0.24625,0.04375],[-0.675,0.29875],[-0.18625,0.41125]]",33.3274,33.3284,33.8269,0,0,0,0,1,,,,,,,,,,,,,,,,,,
,,,,,,,,,468777,001,2023-12-17_15h43.51.128,corsi_blocks,2023.2.2,Win32,166.6666667,,,,33.8271,34.3273,1,0,1,0,1,,,,,,,,,,,,,,,,,,
,,,,,,,,,468777,001,2023-12-17_15h43.51.128,corsi_blocks,2023.2.2,Win32,166.6666667,,,,34.3278,34.8245,2,0,2,0,1,,,,,,,,,,,,,,,,,,
,,,,,,,,,468777,001,2023-12-17_15h43.51.128,corsi_blocks,2023.2.2,Win32,166.6666667,,,,34.8247,35.3219,3,0,3,0,1,,,,,,,,,,,,,,,,,,
,,,,,,,,,468777,001,2023-12-17_15h43.51.128,corsi_blocks,2023.2.2,Win32,166.6666667,,,,,,,,,,,35.3221,42.0851,"[-0.5887222647555207,-0.667447663068548,-0.415651358950328,-0.21196497279902765,-0.22508587251786552,0.21290229432696814,-0.2888159568665066,-0.2888159568665066,0.44283036551077787]","[0.06201186175645794,-0.17104029990627928,-0.2953764639285087,0.23820680083799498,0.23445797234689844,-0.10168697282099344,0.041393305055427015,0.041393305055427015,-0.37722586691658855]","[1,1,1,1,1,1,1,1,1]","[0,0,0,0,0,0,0,0,0]","[0,0,0,0,0,0,0,0,0]","[0.4469999999999956,0.8317999999821168,1.3562999999821201,1.8411999999880777,2.0741999999880747,4.583399999976159,5.180599999994037,5.659399999976159,6.762299999982119]","[""blk1"",""blk3"",""blk4"",""blk7"",""blk7""]","[1,1,1,1,0]",0,42.0855,43.0851,3,0,3,0,1
,,,,,,,,,468777,001,2023-12-17_15h43.51.128,corsi_blocks,2023.2.2,Win32,166.6666667,43.0855,"[[-0.4075,0.11875],[-0.0225,0.395],[-0.45875,-0.3],[-0.6025,0.0725],[0.1925,-0.295],[0.28875,0.39875],[0.4625,0.35875],[0.62875,-0.1825],[-0.55125,-0.13375]]",43.5828,43.5835,44.0851,0,0,0,0,1,,,,,,,,,,,,,,,,,,
,,,,,,,,,468777,001,2023-12-17_15h43.51.128,corsi_blocks,2023.2.2,Win32,166.6666667,,,,44.0853,44.582,1,0,1,0,1,,,,,,,,,,,,,,,,,,
,,,,,,,,,468777,001,2023-12-17_15h43.51.128,corsi_blocks,2023.2.2,Win32,166.6666667,,,,44.5822,45.0791,2,0,2,0,1,,,,,,,,,,,,,,,,,,
,,,,,,,,,468777,001,2023-12-17_15h43.51.128,corsi_blocks,2023.2.2,Win32,166.6666667,,,,45.0794,45.576,3,0,3,0,1,,,,,,,,,,,,,,,,,,
,,,,,,,,,468777,001,2023-12-17_15h43.51.128,corsi_blocks,2023.2.2,Win32,166.6666667,,,,,,,,,,,45.5761,48.7729,"[-0.4268978444236176,-0.023898781630740395,-0.4831302717900656,-0.6449546921219688,0.4690721649484536]","[0.13136518884174378,0.37066541705716965,-0.2847548022712629,0.06763510449310274,-0.37722586691658855]","[1,1,1,1,1]","[0,0,0,0,0]","[0,0,0,0,0]","[0.8749000000059581,1.3839000000059585,1.911199999988078,2.4624999999999986,3.195999999999998]","[""blk1"",""blk2"",""blk3"",""blk4""]","[1,1,1,1]",1,48.7733,49.7724,4,0,4,0,1
,,,,,,,,,468777,001,2023-12-17_15h43.51.128,corsi_blocks,2023.2.2,Win32,166.6666667,49.7726,"[[0.54,0.03625],[0.16625,0.3825],[0.28875,0.39875],[0.6375,0.27375],[-0.09875,0.065],[-0.18625,0.41125],[-0.01125,-0.295],[0.19375,-0.17125],[0.05875,-0.0575]]",50.2693,50.2696,50.7699,0,0,0,0,1,,,,,,,,,,,,,,,,,,
,,,,,,,,,468777,001,2023-12-17_15h43.51.128,corsi_blocks,2023.2.2,Win32,166.6666667,,,,50.7702,51.2669,1,0,1,0,1,,,,,,,,,,,,,,,,,,
,,,,,,,,,468777,001,2023-12-17_15h43.51.128,corsi_blocks,2023.2.2,Win32,166.6666667,,,,51.2671,51.7639,2,0,2,0,1,,,,,,,,,,,,,,,,,,
,,,,,,,,,468777,001,2023-12-17_15h43.51.128,corsi_blocks,2023.2.2,Win32,166.6666667,,,,51.7641,52.2634,3,0,3,0,1,,,,,,,,,,,,,,,,,,
,,,,,,,,,468777,001,2023-12-17_15h43.51.128,corsi_blocks,2023.2.2,Win32,166.6666667,,,,52.2636,52.7663,4,0,4,0,1,,,,,,,,,,,,,,,,,,
,,,,,,,,,468777,001,2023-12-17_15h43.51.128,corsi_blocks,2023.2.2,Win32,166.6666667,,,,,,,,,,,52.7663,55.449,"[0.5221806448424321,0.17728842366155106,0.2678850740613285,0.6427679231709817,-0.10262417994376757,0.5165574021057873]","[0.023898781630740395,0.35691970782293375,0.386910335751706,0.28069353327085284,0.05139017149792057,-0.4115901471525012]","[1,1,1,1,1,1]","[0,0,0,0,0,0]","[0,0,0,0,0,0]","[0.4879000000059577,0.8698000000119208,1.1060999999940364,1.5000999999940348,2.14259999999404,2.681999999999995]","[""blk1"",""blk2"",""blk3"",""blk4"",""blk5""]","[1,1,1,1,1]",1,55.4494,56.4488,5,0,5,0,1
,,,,,,,,,468777,001,2023-12-17_15h43.51.128,corsi_blocks,2023.2.2,Win32,166.6666667,56.4492,"[[0.1925,-0.295],[-0.6025,0.0725],[-0.01875,0.235],[-0.09875,0.065],[0.62875,-0.1825],[0.05875,-0.0575],[0.6375,0.27375],[-0.16125,-0.28],[0.45375,0.175]]",56.9458,56.9465,57.4428,0,0,0,0,1,,,,,,,,,,,,,,,,,,
,,,,,,,,,468777,001,2023-12-17_15h43.51.128,corsi_blocks,2023.2.2,Win32,166.6666667,,,,57.443,57.9397,1,0,1,0,1,,,,,,,,,,,,,,,,,,
,,,,,,,,,468777,001,2023-12-17_15h43.51.128,corsi_blocks,2023.2.2,Win32,166.6666667,,,,57.9399,58.4367,2,0,2,0,1,,,,,,,,,,,,,,,,,,
,,,,,,,,,468777,001,2023-12-17_15h43.51.128,corsi_blocks,2023.2.2,Win32,166.6666667,,,,58.437,58.9338,3,0,3,0,1,,,,,,,,,,,,,,,,,,
,,,,,,,,,468777,001,2023-12-17_15h43.51.128,corsi_blocks,2023.2.2,Win32,166.6666667,,,,58.9342,59.4308,4,0,4,0,1,,,,,,,,,,,,,,,,,,
,,,,,,,,,468777,001,2023-12-17_15h43.51.128,corsi_blocks,2023.2.2,Win32,166.6666667,,,,59.431,59.9277,5,0,5,0,1,,,,,,,,,,,,,,,,,,
,,,,,,,,,468777,001,2023-12-17_15h43.51.128,corsi_blocks,2023.2.2,Win32,166.6666667,,,,,,,,,,,59.9278,63.585,"[0.19978139460813027,-0.5706029318154361,-0.04451733833177132,0.6290222568386832,-0.11699467009210988,0.07357075913776945,0.18416119962511715,0.4372071227741331]","[-0.3209934395501406,0.08762886597938144,0.2363323865924467,-0.18228678537956888,0.0863792469485854,-0.05295220243673852,-0.26226183132468367,-0.3815995192237289]","[1,1,1,1,1,1,1,1]","[0,0,0,0,0,0,0,0]","[0,0,0,0,0,0,0,0]","[0.4990999999940442,1.044599999994034,1.5293000000119292,2.032300000011915,2.4625999999940404,2.7900000000000063,3.202099999994047,3.6565000000000083]","[""blk1"",""blk2"",""blk3"",""blk5"",""blk4"",""blk6"",""blk1""]","[1,1,1,0,0,1]",0,63.5853,64.5821,6,0,6,0,1