instructions.started,instructions.stopped,key_resp.keys,mouse.x,mouse.y,mouse.leftButton,mouse.midButton,mouse.rightButton,mouse.time,participant,session,date,expName,psychopyVersion,OS,frameRate,ISI.started,positions,ISI.stopped,corsi_present.started,corsi_present.stopped,block_sequence.thisRepN,block_sequence.thisTrialN,block_sequence.thisN,block_sequence.thisIndex,block_sequence.ran,corsi_respond.started,corsi_respond.stopped,corsi_mouse.x,corsi_mouse.y,corsi_mouse.leftButton,corsi_mouse.midButton,corsi_mouse.rightButton,corsi_mouse.time,corsi_mouse.clicked_name,correct_list,corsi_correct,feedback.started,feedback.stopped,corsi_task.thisRepN,corsi_task.thisTrialN,corsi_task.thisN,corsi_task.thisIndex,corsi_task.ran
0.0002,10.4373,,-0.266666667,0.163888889,1,0,0,10.433,469036,001,2023-12-21_08h52.08.737,corsi_blocks,2023.2.2,Win32,59.88023952,,,,,,,,,,,,,,,,,,,,,,,,,,,,
,,,,,,,,,469036,001,2023-12-21_08h52.08.737,corsi_blocks,2023.2.2,Win32,59.88023952,10.4767,"[[0.25625,0.0975],[-0.01125,-0.295],[-0.68625,-0.225],[0.19375,-0.17125],[-0.01875,0.235],[0.57875,-0.31375],[-0.12125,-0.12625],[-0.0225,0.395],[-0.675,0.29875]]",10.9525,10.9572,11.4528,0,0,0,0,1,,,,,,,,,,,,,,,,,,
,,,,,,,,,469036,001,2023-12-21_08h52.08.737,corsi_blocks,2023.2.2,Win32,59.88023952,,,,11.4541,11.9525,1,0,1,0,1,,,,,,,,,,,,,,,,,,
,,,,,,,,,469036,001,2023-12-21_08h52.08.737,corsi_blocks,2023.2.2,Win32,59.88023952,,,,11.9537,12.4521,2,0,2,0,1,,,,,,,,,,,,,,,,,,
,,,,,,,,,469036,001,2023-12-21_08h52.08.737,corsi_blocks,2023.2.2,Win32,59.88023952,,,,,,,,,,,12.4535,17.9372,"[0.2962962962962963,0.009259259259259259,-0.7175925925925926,0.5138888888888888]","[0.0962962962962963,-0.27685185185185185,-0.24166666666666667,-0.41388888888888886]","[1,1,1,1]","[0,0,0,0]","[0,0,0,0]","[2.526600000023844,3.358600000023845,4.0426000000238425,5.475600000023842]","[""blk1"",""blk2"",""blk3""]","[1,1,1]",1,17.9389,18.9364,0,0,0,0,1
,,,,,,,,,469036,001,2023-12-21_08h52.08.737,corsi_blocks,2023.2.2,Win32,59.88023952,18.9377,"[[-0.12125,-0.12625],[-0.55125,-0.13375],[0.19375,-0.17125],[-0.3575,-0.05625],[-0.18625,0.41125],[0.4125,-0.1325],[0.16625,0.3825],[0.4625,0.35875],[0.57875,-0.31375]]",19.4353,19.4374,19.9357,0,0,0,0,1,,,,,,,,,,,,,,,,,,
,,,,,,,,,469036,001,2023-12-21_08h52.08.737,corsi_blocks,2023.2.2,Win32,59.88023952,,,,19.9365,20.4352,1,0,1,0,1,,,,,,,,,,,,,,,,,,
,,,,,,,,,469036,001,2023-12-21_08h52.08.737,corsi_blocks,2023.2.2,Win32,59.88023952,,,,20.4361,20.9358,2,0,2,0,1,,,,,,,,,,,,,,,,,,
,,,,,,,,,469036,001,2023-12-21_08h52.08.737,corsi_blocks,2023.2.2,Win32,59.88023952,,,,20.9365,21.4355,3,0,3,0,1,,,,,,,,,,,,,,,,,,
,,,,,,,,,469036,001,2023-12-21_08h52.08.737,corsi_blocks,2023.2.2,Win32,59.88023952,,,,,,,,,,,21.4358,25.3533,"[-0.09074074074074075,-0.5018518518518519,0.1935185185185185,-0.35,0.4527777777777778]","[-0.13333333333333333,-0.14166666666666666,-0.15185185185185185,-0.08333333333333333,-0.4046296296296296]","[1,1,1,1,1]","[0,0,0,0,0]","[0,0,0,0,0]","[0.5478999999761598,1.3813999999761606,2.147600000023843,3.181800000011922,3.9145000000000003]","[""blk1"",""blk2"",""blk3"",""blk4""]","[1,1,1,1]",1,25.3546,26.3527,1,0,1,0,1
,,,,,,,,,469036,001,2023-12-21_08h52.08.737,corsi_blocks,2023.2.2,Win32,59.88023952,26.3535,"[[-0.01125,-0.295],[-0.4075,0.11875],[-0.01875,0.235],[0.0675,0.07375],[0.6375,0.27375],[0.4625,0.35875],[-0.09875,0.065],[-0.35125,0.36625],[-0.16125,-0.28]]",26.8518,26.8548,27.3526,0,0,0,0,1,,,,,,,,,,,,,,,,,,
,,,,,,,,,469036,001,2023-12-21_08h52.08.737,corsi_blocks,2023.2.2,Win32,59.88023952,,,,27.3537,27.8524,1,0,1,0,1,,,,,,,,,,,,,,,,,,
,,,,,,,,,469036,001,2023-12-21_08h52.08.737,corsi_blocks,2023.2.2,Win32,59.88023952,,,,27.8534,28.3522,2,0,2,0,1,,,,,,,,,,,,,,,,,,
,,,,,,,,,469036,001,2023-12-21_08h52.08.737,corsi_blocks,2023.2.2,Win32,59.88023952,,,,28.3529,28.8518,3,0,3,0,1,,,,,,,,,,,,,,,,,,
,,,,,,,,,469036,001,2023-12-21_08h52.08.737,corsi_blocks,2023.2.2,Win32,59.88023952,,,,28.8526,29.3523,4,0,4,0,1,,,,,,,,,,,,,,,,,,
,,,,,,,,,469036,001,2023-12-21_08h52.08.737,corsi_blocks,2023.2.2,Win32,59.88023952,,,,,,,,,,,29.3525,33.3701,"[-0.021296296296296296,-0.387037037037037,0.020370370370370372,0.06388888888888888,0.6657407407407407,0.48333333333333334,0.43703703703703706]","[-0.2796296296296296,0.11388888888888889,0.22314814814814815,0.0824074074074074,0.28703703703703703,-0.36018518518518516,-0.3787037037037037]","[1,1,1,1,1,1,1]","[0,0,0,0,0,0,0]","[0,0,0,0,0,0,0]","[0.5973999999761546,1.097999999999999,1.647899999976154,2.0486999999880737,2.6629999999999967,3.3143000000119187,4.0148999999761585]","[""blk1"",""blk2"",""blk3"",""blk4"",""blk5""]","[1,1,1,1,1]",1,33.371,34.3689,2,0,2,0,1
,,,,,,,,,469036,001,2023-12-21_08h52.08.737,corsi_blocks,2023.2.2,Win32,59.88023952,34.3699,"[[0.25625,0.0975],[-0.68625,-0.225],[-0.285,-0.27125],[0.1925,-0.295],[0.16625,0.3825],[-0.3575,-0.05625],[-0.01875,0.235],[-0.675,0.29875],[0.62875,-0.1825]]",34.8683,34.8713,35.369,0,0,0,0,1,,,,,,,,,,,,,,,,,,
,,,,,,,,,469036,001,2023-12-21_08h52.08.737,corsi_blocks,2023.2.2,Win32,59.88023952,,,,35.3697,35.8689,1,0,1,0,1,,,,,,,,,,,,,,,,,,
,,,,,,,,,469036,001,2023-12-21_08h52.08.737,corsi_blocks,2023.2.2,Win32,59.88023952,,,,35.8695,36.369,2,0,2,0,1,,,,,,,,,,,,,,,,,,
,,,,,,,,,469036,001,2023-12-21_08h52.08.737,corsi_blocks,2023.2.2,Win32,59.88023952,,,,36.3697,36.8688,3,0,3,0,1,,,,,,,,,,,,,,,,,,
,,,,,,,,,469036,001,2023-12-21_08h52.08.737,corsi_blocks,2023.2.2,Win32,59.88023952,,,,36.8697,37.3691,4,0,4,0,1,,,,,,,,,,,,,,,,,,
,,,,,,,,,469036,001,2023-12-21_08h52.08.737,corsi_blocks,2023.2.2,Win32,59.88023952,,,,37.3701,37.8686,5,0,5,0,1,,,,,,,,,,,,,,,,,,
,,,,,,,,,469036,001,2023-12-21_08h52.08.737,corsi_blocks,2023.2.2,Win32,59.88023952,,,,,,,,,,,37.8689,42.7854,"[0.24722222222222223,-0.6555555555555556,-0.29074074074074074,0.17685185185185184,0.1675925925925926,-0.3314814814814815,0.5]","[0.07592592592592592,-0.20925925925925926,-0.2574074074074074,-0.28703703703703703,0.38333333333333336,-0.05462962962962963,-0.3861111111111111]","[1,1,1,1,1,1,1]","[0,0,0,0,0,0,0]","[0,0,0,0,0,0,0]","[1.1475000000000009,1.8804000000357632,2.564199999988084,3.1806999999880787,3.6973000000119214,4.231500000000004,4.913600000023841]","[""blk1"",""blk2"",""blk3"",""blk4"",""blk5"",""blk6""]","[1,1,1,1,1,1]",1,42.786,43.7943,3,0,3,0,1
,,,,,,,,,469036,001,2023-12-21_08h52.08.737,corsi_blocks,2023.2.2,Win32,59.88023952,43.7958,"[[-0.675,0.29875],[0.54,0.03625],[-0.0225,0.395],[-0.6025,0.0725],[0.16625,0.3825],[-0.01875,0.235],[0.57875,-0.31375],[0.45375,0.175],[-0.26625,0.235]]",44.2854,44.2877,44.7859,0,0,0,0,1,,,,,,,,,,,,,,,,,,
,,,,,,,,,469036,001,2023-12-21_08h52.08.737,corsi_blocks,2023.2.2,Win32,59.88023952,,,,44.7869,45.2857,1,0,1,0,1,,,,,,,,,,,,,,,,,,
,,,,,,,,,469036,001,2023-12-21_08h52.08.737,corsi_blocks,2023.2.2,Win32,59.88023952,,,,45.2865,45.7858,2,0,2,0,1,,,,,,,,,,,,,,,,,,
,,,,,,,,,469036,001,2023-12-21_08h52.08.737,corsi_blocks,2023.2.2,Win32,59.88023952,,,,45.7867,46.2855,3,0,3,0,1,,,,,,,,,,,,,,,,,,
,,,,,,,,,469036,001,2023-12-21_08h52.08.737,corsi_blocks,2023.2.2,Win32,59.88023952,,,,46.2862,46.7857,4,0,4,0,1,,,,,,,,,,,,,,,,,,
,,,,,,,,,469036,001,2023-12-21_08h52.08.737,corsi_blocks,2023.2.2,Win32,59.88023952,,,,46.7865,47.2856,5,0,5,0,1,,,,,,,,,,,,,,,,,,
,,,,,,,,,469036,001,2023-12-21_08h52.08.737,corsi_blocks,2023.2.2,Win32,59.88023952,,,,47.2862,47.7854,6,0,6,0,1,,,,,,,,,,,,,,,,,,
,,,,,,,,,469036,001,2023-12-21_08h52.08.737,corsi_blocks,2023.2.2,Win32,59.88023952,,,,,,,,,,,47.7859,53.8681,"[-0.6296296296296297,0.5518518518518518,-0.014814814814814815,0.1787037037037037,-0.6064814814814815,-0.016666666666666666,0.5787037037037037,0.5509259259259259]","[0.2824074074074074,0.010185185185185186,0.35648148148148145,0.35555555555555557,0.0787037037037037,0.24537037037037038,-0.2759259259259259,-0.38055555555555554]","[1,1,1,1,1,1,1,1]","[0,0,0,0,0,0,0,0]","[0,0,0,0,0,0,0,0]","[1.264100000023845,2.179900000035765,2.8464000000357643,3.3638000000119206,4.264500000000005,4.846600000023841,5.563600000023847,6.079100000023843]","[""blk1"",""blk2"",""blk3"",""blk5"",""blk4"",""blk6"",""blk7""]","[1,1,1,0,0,1,1]",0,53.8689,54.8686,4,0,4,0,1
,,,,,,,,,469036,001,2023-12-21_08h52.08.737,corsi_blocks,2023.2.2,Win32,59.88023952,54.8693,"[[-0.6025,0.0725],[-0.675,0.29875],[-0.16125,-0.28],[0.54,0.03625],[-0.18625,0.41125],[-0.24625,0.04375],[0.365,-0.27625],[-0.35125,0.36625],[-0.485,0.34625]]",55.3685,55.3704,55.8692,0,0,0,0,1,,,,,,,,,,,,,,,,,,
,,,,,,,,,469036,001,2023-12-21_08h52.08.737,corsi_blocks,2023.2.2,Win32,59.88023952,,,,55.87,56.3688,1,0,1,0,1,,,,,,,,,,,,,,,,,,
,,,,,,,,,469036,001,2023-12-21_08h52.08.737,corsi_blocks,2023.2.2,Win32,59.88023952,,,,56.3697,56.8688,2,0,2,0,1,,,,,,,,,,,,,,,,,,
,,,,,,,,,469036,001,2023-12-21_08h52.08.737,corsi_blocks,2023.2.2,Win32,59.88023952,,,,56.8698,57.3679,3,0,3,0,1,,,,,,,,,,,,,,,,,,
,,,,,,,,,469036,001,2023-12-21_08h52.08.737,corsi_blocks,2023.2.2,Win32,59.88023952,,,,57.3682,57.8687,4,0,4,0,1,,,,,,,,,,,,,,,,,,
,,,,,,,,,469036,001,2023-12-21_08h52.08.737,corsi_blocks,2023.2.2,Win32,59.88023952,,,,57.8695,58.3686,5,0,5,0,1,,,,,,,,,,,,,,,,,,
,,,,,,,,,469036,001,2023-12-21_08h52.08.737,corsi_blocks,2023.2.2,Win32,59.88023952,,,,58.3693,58.8696,6,0,6,0,1,,,,,,,,,,,,,,,,,,
,,,,,,,,,469036,001,2023-12-21_08h52.08.737,corsi_blocks,2023.2.2,Win32,59.88023952,,,,,,,,,,,58.87,66.1526,"[-0.6824074074074075,-0.6231481481481481,0.5564814814814815,-0.17962962962962964,-0.24259259259259258,0.3212962962962963,-0.2,0.5305555555555556,0.5231481481481481,0.5203703703703704]","[0.2712962962962963,0.10925925925925926,0.030555555555555555,-0.27685185185185185,0.040740740740740744,-0.2740740740740741,0.37592592592592594,-0.44351851851851853,-0.42962962962962964,-0.4027777777777778]","[1,1,1,1,1,1,1,1,1,1]","[0,0,0,0,0,0,0,0,0,0]","[0,0,0,0,0,0,0,0,0,0]","[0.7625000000000028,1.3121999999880813,1.962099999964238,2.545500000000004,3.045399999976155,3.6783999999761647,5.379399999976158,6.061999999999998,6.595299999952317,7.2787999999523265]","[""blk2"",""blk1"",""blk4"",""blk3"",""blk6"",""blk7"",""blk5""]","[0,0,0,0,0,0,0]",0,66.1539,67.1523,5,0,5,0,1
,,,,,,,,,469036,001,2023-12-21_08h52.08.737,corsi_blocks,2023.2.2,Win32,59.88023952,67.1532,"[[0.25625,0.0975],[0.16625,0.3825],[-0.16125,-0.28],[0.0675,0.07375],[0.4125,-0.1325],[-0.12125,-0.12625],[0.05875,-0.0575],[0.19375,-0.17125],[-0.6025,0.0725]]",67.6525,67.6547,68.1523,0,0,0,0,1,,,,,,,,,,,,,,,,,,
,,,,,,,,,469036,001,2023-12-21_08h52.08.737,corsi_blocks,2023.2.2,Win32,59.88023952,,,,68.153,68.6521,1,0,1,0,1,,,,,,,,,,,,,,,,,,
,,,,,,,,,469036,001,2023-12-21_08h52.08.737,corsi_blocks,2023.2.2,Win32,59.88023952,,,,68.653,69.1521,2,0,2,0,1,,,,,,,,,,,,,,,,,,
,,,,,,,,,469036,001,2023-12-21_08h52.08.737,corsi_blocks,2023.2.2,Win32,59.88023952,,,,69.1529,69.653,3,0,3,0,1,,,,,,,,,,,,,,,,,,
,,,,,,,,,469036,001,2023-12-21_08h52.08.737,corsi_blocks,2023.2.2,Win32,59.88023952,,,,69.6545,70.7273,4,0,4,0,1,,,,,,,,,,,,,,,,,,
,,,,,,,,,469036,001,2023-12-21_08h52.08.737,corsi_blocks,2023.2.2,Win32,59.88023952,,,,70.7276,70.7281,5,0,5,0,1,,,,,,,,,,,,,,,,,,