instructions.started,instructions.stopped,key_resp.keys,mouse.x,mouse.y,mouse.leftButton,mouse.midButton,mouse.rightButton,mouse.time,participant,session,date,expName,psychopyVersion,OS,frameRate,ISI.started,positions,ISI.stopped,corsi_present.started,corsi_present.stopped,block_sequence.thisRepN,block_sequence.thisTrialN,block_sequence.thisN,block_sequence.thisIndex,block_sequence.ran,corsi_respond.started,corsi_respond.stopped,corsi_mouse.x,corsi_mouse.y,corsi_mouse.leftButton,corsi_mouse.midButton,corsi_mouse.rightButton,corsi_mouse.time,corsi_mouse.clicked_name,correct_list,corsi_correct,feedback.started,feedback.stopped,corsi_task.thisRepN,corsi_task.thisTrialN,corsi_task.thisN,corsi_task.thisIndex,corsi_task.ran,end.started
0.0002,23.2705,,0.193533271,-0.001718251,1,0,0,23.2686,526470,001,2024-02-16_15h12.12.938,corsi_blocks,2023.2.2,Win32,241.7210539,,,,,,,,,,,,,,,,,,,,,,,,,,,,,
,,,,,,,,,526470,001,2024-02-16_15h12.12.938,corsi_blocks,2023.2.2,Win32,241.7210539,23.2762,"[[-0.675,0.29875],[0.365,-0.27625],[0.0675,0.07375],[0.57875,-0.31375],[0.45375,0.175],[-0.45875,-0.3],[-0.3575,-0.05625],[0.28875,0.39875],[-0.0225,0.395]]",23.7723,23.7735,24.2709,0,0,0,0,1,,,,,,,,,,,,,,,,,,,
,,,,,,,,,526470,001,2024-02-16_15h12.12.938,corsi_blocks,2023.2.2,Win32,241.7210539,,,,24.2713,24.7701,1,0,1,0,1,,,,,,,,,,,,,,,,,,,
,,,,,,,,,526470,001,2024-02-16_15h12.12.938,corsi_blocks,2023.2.2,Win32,241.7210539,,,,24.7704,25.274,2,0,2,0,1,,,,,,,,,,,,,,,,,,,
,,,,,,,,,526470,001,2024-02-16_15h12.12.938,corsi_blocks,2023.2.2,Win32,241.7210539,,,,,,,,,,,25.2742,29.3931,"[-0.6605748156017529,0.35660731021555764,0.08856607310215557,0.5096845117370549]","[0.31193376592977534,-0.2503905220353503,0.06825989970785497,-0.4040924901703081]","[1,1,1,1]","[0,0,0,0]","[0,0,0,0]","[0.9712000000001879,1.8125,2.5056000000000935,4.1175]","[""blk1"",""blk2"",""blk3""]","[1,1,1]",1,29.3936,30.3929,0,0,0,0,1,
,,,,,,,,,526470,001,2024-02-16_15h12.12.938,corsi_blocks,2023.2.2,Win32,241.7210539,30.3933,"[[0.19375,-0.17125],[-0.18625,0.41125],[0.30125,-0.0175],[0.1925,-0.295],[-0.26625,0.235],[-0.09875,0.065],[-0.45875,-0.3],[0.22,0.2425],[-0.35125,0.36625]]",30.8928,30.8937,31.3928,0,0,0,0,1,,,,,,,,,,,,,,,,,,,
,,,,,,,,,526470,001,2024-02-16_15h12.12.938,corsi_blocks,2023.2.2,Win32,241.7210539,,,,31.3933,31.8911,1,0,1,0,1,,,,,,,,,,,,,,,,,,,
,,,,,,,,,526470,001,2024-02-16_15h12.12.938,corsi_blocks,2023.2.2,Win32,241.7210539,,,,31.8916,32.3908,2,0,2,0,1,,,,,,,,,,,,,,,,,,,
,,,,,,,,,526470,001,2024-02-16_15h12.12.938,corsi_blocks,2023.2.2,Win32,241.7210539,,,,32.391,32.8907,3,0,3,0,1,,,,,,,,,,,,,,,,,,,
,,,,,,,,,526470,001,2024-02-16_15h12.12.938,corsi_blocks,2023.2.2,Win32,241.7210539,,,,,,,,,,,32.8908,36.4618,"[0.18853490913484067,-0.17697592594965442,0.3134957825679475,0.20103092783505155,0.5296783018246252]","[-0.13292724838185332,0.3844111191410826,-0.02296157450796626,-0.3003748828491096,-0.4034676663542643]","[1,1,1,1,1]","[0,0,0,0,0]","[0,0,0,0,0]","[0.8413999999999007,1.5664999999999978,2.105600000000088,2.7431000000000907,3.570399999999907]","[""blk1"",""blk2"",""blk3"",""blk4""]","[1,1,1,1]",1,36.4622,37.4594,1,0,1,0,1,
,,,,,,,,,526470,001,2024-02-16_15h12.12.938,corsi_blocks,2023.2.2,Win32,241.7210539,37.4603,"[[0.62875,-0.1825],[-0.45875,-0.3],[-0.35125,0.36625],[0.4625,0.35875],[-0.3575,-0.05625],[0.4125,-0.1325],[-0.6025,0.0725],[0.45375,0.175],[0.54,0.03625]]",37.9595,37.9598,38.4594,0,0,0,0,1,,,,,,,,,,,,,,,,,,,
,,,,,,,,,526470,001,2024-02-16_15h12.12.938,corsi_blocks,2023.2.2,Win32,241.7210539,,,,38.4597,38.9594,1,0,1,0,1,,,,,,,,,,,,,,,,,,,
,,,,,,,,,526470,001,2024-02-16_15h12.12.938,corsi_blocks,2023.2.2,Win32,241.7210539,,,,38.9597,39.4598,2,0,2,0,1,,,,,,,,,,,,,,,,,,,
,,,,,,,,,526470,001,2024-02-16_15h12.12.938,corsi_blocks,2023.2.2,Win32,241.7210539,,,,39.46,39.9601,3,0,3,0,1,,,,,,,,,,,,,,,,,,,
,,,,,,,,,526470,001,2024-02-16_15h12.12.938,corsi_blocks,2023.2.2,Win32,241.7210539,,,,39.9605,40.4594,4,0,4,0,1,,,,,,,,,,,,,,,,,,,
,,,,,,,,,526470,001,2024-02-16_15h12.12.938,corsi_blocks,2023.2.2,Win32,241.7210539,,,,,,,,,,,40.4595,44.3226,"[0.6290222568386832,-0.46938454825518394,-0.356919693522288,0.4340831753016635,-0.3612933458294283,0.5003124405093134]","[-0.18728526150275304,-0.2928772258669166,0.3612933458294283,0.3537956888472352,-0.056076264314374416,-0.39721965700415884]","[1,1,1,1,1,1]","[0,0,0,0,0,0]","[0,0,0,0,0,0]","[0.703000000000003,1.3662999999998178,2.02489999999991,2.6538999999999078,3.2116999999997233,3.8620999999996286]","[""blk1"",""blk2"",""blk3"",""blk4"",""blk5""]","[1,1,1,1,1]",1,44.3228,45.3229,2,0,2,0,1,
,,,,,,,,,526470,001,2024-02-16_15h12.12.938,corsi_blocks,2023.2.2,Win32,241.7210539,45.323,"[[0.365,-0.27625],[-0.01875,0.235],[-0.01125,-0.295],[0.4125,-0.1325],[0.1925,-0.295],[0.16625,0.3825],[0.62875,-0.1825],[-0.6025,0.0725],[0.19375,-0.17125]]",45.8233,45.8236,46.3233,0,0,0,0,1,,,,,,,,,,,,,,,,,,,
,,,,,,,,,526470,001,2024-02-16_15h12.12.938,corsi_blocks,2023.2.2,Win32,241.7210539,,,,46.3235,46.8219,1,0,1,0,1,,,,,,,,,,,,,,,,,,,
,,,,,,,,,526470,001,2024-02-16_15h12.12.938,corsi_blocks,2023.2.2,Win32,241.7210539,,,,46.8222,47.3218,2,0,2,0,1,,,,,,,,,,,,,,,,,,,
,,,,,,,,,526470,001,2024-02-16_15h12.12.938,corsi_blocks,2023.2.2,Win32,241.7210539,,,,47.322,47.8222,3,0,3,0,1,,,,,,,,,,,,,,,,,,,
,,,,,,,,,526470,001,2024-02-16_15h12.12.938,corsi_blocks,2023.2.2,Win32,241.7210539,,,,47.8225,48.3218,4,0,4,0,1,,,,,,,,,,,,,,,,,,,
,,,,,,,,,526470,001,2024-02-16_15h12.12.938,corsi_blocks,2023.2.2,Win32,241.7210539,,,,48.3221,48.8217,5,0,5,0,1,,,,,,,,,,,,,,,,,,,
,,,,,,,,,526470,001,2024-02-16_15h12.12.938,corsi_blocks,2023.2.2,Win32,241.7210539,,,,,,,,,,,48.8221,53.6091,"[0.384098757285321,-0.005779405788718369,-0.002030577297621837,0.43095911342402765,0.21415182755388942,0.18541084725720477,0.5309278350515464]","[-0.3003748828491096,0.23758200562324275,-0.27850673571857426,-0.10855986318972587,-0.28288038802571464,0.42127460168697284,-0.3959700093720712]","[1,1,1,1,1,1,1]","[0,0,0,0,0,0,0]","[0,0,0,0,0,0,0]","[1.1808999999998946,1.8658999999998969,2.521199999999709,3.0405999999996283,3.524199999999709,4.057299999999813,4.7864999999999895]","[""blk1"",""blk2"",""blk3"",""blk4"",""blk5"",""blk6""]","[1,1,1,1,1,1]",1,53.6094,54.6092,3,0,3,0,1,
,,,,,,,,,526470,001,2024-02-16_15h12.12.938,corsi_blocks,2023.2.2,Win32,241.7210539,54.6097,"[[-0.35125,0.36625],[0.1925,-0.295],[-0.09875,0.065],[-0.675,0.29875],[0.4125,-0.1325],[-0.18625,0.41125],[-0.285,-0.27125],[0.28875,0.39875],[-0.01875,0.235]]",55.1118,55.1125,55.6157,0,0,0,0,1,,,,,,,,,,,,,,,,,,,
,,,,,,,,,526470,001,2024-02-16_15h12.12.938,corsi_blocks,2023.2.2,Win32,241.7210539,,,,55.6161,56.1136,1,0,1,0,1,,,,,,,,,,,,,,,,,,,
,,,,,,,,,526470,001,2024-02-16_15h12.12.938,corsi_blocks,2023.2.2,Win32,241.7210539,,,,56.114,56.6134,2,0,2,0,1,,,,,,,,,,,,,,,,,,,
,,,,,,,,,526470,001,2024-02-16_15h12.12.938,corsi_blocks,2023.2.2,Win32,241.7210539,,,,56.6138,57.1132,3,0,3,0,1,,,,,,,,,,,,,,,,,,,
,,,,,,,,,526470,001,2024-02-16_15h12.12.938,corsi_blocks,2023.2.2,Win32,241.7210539,,,,57.1135,57.6132,4,0,4,0,1,,,,,,,,,,,,,,,,,,,
,,,,,,,,,526470,001,2024-02-16_15h12.12.938,corsi_blocks,2023.2.2,Win32,241.7210539,,,,57.6135,58.1134,5,0,5,0,1,,,,,,,,,,,,,,,,,,,
,,,,,,,,,526470,001,2024-02-16_15h12.12.938,corsi_blocks,2023.2.2,Win32,241.7210539,,,,58.1138,58.6158,6,0,6,0,1,,,,,,,,,,,,,,,,,,,
,,,,,,,,,526470,001,2024-02-16_15h12.12.938,corsi_blocks,2023.2.2,Win32,241.7210539,,,,,,,,,,,58.6159,65.5923,"[-0.31693217054973055,0.1866604948892924,-0.1007497656982193,-0.6786941485418375,0.4090909090909091,-0.28631677600749766,-0.04451733833177132,0.5296783018246252]","[0.3375507558520531,-0.2847548022712629,0.0607622427256619,0.3075601279232808,-0.13855049111849813,-0.2666354264292409,0.26069977178457415,-0.41283973758200565]","[1,1,1,1,1,1,1,1]","[0,0,0,0,0,0,0,0]","[0,0,0,0,0,0,0,0]","[1.1050999999996236,2.0131999999997134,2.6550999999996208,3.296699999999717,5.263299999999816,5.831599999999625,6.279899999999898,6.9755999999996305]","[""blk1"",""blk2"",""blk3"",""blk4"",""blk5"",""blk7"",""blk9""]","[1,1,1,1,1,0,0]",0,65.5926,66.5925,4,0,4,0,1,
,,,,,,,,,526470,001,2024-02-16_15h12.12.938,corsi_blocks,2023.2.2,Win32,241.7210539,66.5929,"[[0.45375,0.175],[-0.01125,-0.295],[-0.12125,-0.12625],[0.28875,0.39875],[0.05875,-0.0575],[0.03125,-0.41],[-0.3575,-0.05625],[0.22,0.2425],[0.4125,-0.1325]]",67.0925,67.0936,67.5934,0,0,0,0,1,,,,,,,,,,,,,,,,,,,
,,,,,,,,,526470,001,2024-02-16_15h12.12.938,corsi_blocks,2023.2.2,Win32,241.7210539,,,,67.5938,68.0924,1,0,1,0,1,,,,,,,,,,,,,,,,,,,
,,,,,,,,,526470,001,2024-02-16_15h12.12.938,corsi_blocks,2023.2.2,Win32,241.7210539,,,,68.0928,68.5924,2,0,2,0,1,,,,,,,,,,,,,,,,,,,
,,,,,,,,,526470,001,2024-02-16_15h12.12.938,corsi_blocks,2023.2.2,Win32,241.7210539,,,,68.5928,69.0923,3,0,3,0,1,,,,,,,,,,,,,,,,,,,
,,,,,,,,,526470,001,2024-02-16_15h12.12.938,corsi_blocks,2023.2.2,Win32,241.7210539,,,,69.0926,69.5924,4,0,4,0,1,,,,,,,,,,,,,,,,,,,
,,,,,,,,,526470,001,2024-02-16_15h12.12.938,corsi_blocks,2023.2.2,Win32,241.7210539,,,,69.5927,70.0922,5,0,5,0,1,,,,,,,,,,,,,,,,,,,
,,,,,,,,,526470,001,2024-02-16_15h12.12.938,corsi_blocks,2023.2.2,Win32,241.7210539,,,,70.0926,70.5924,6,0,6,0,1,,,,,,,,,,,,,,,,,,,
,,,,,,,,,526470,001,2024-02-16_15h12.12.938,corsi_blocks,2023.2.2,Win32,241.7210539,,,,,,,,,,,70.5925,77.2038,"[0.42783505154639173,0.007966260543580132,-0.02014995313964386,-0.1376132267931408,0.28225562141225397,0.050453021577729615,0.02421122214005389,-0.3669165885660731,0.5259294733335286]","[0.18134957825679476,-0.22664796065926662,-0.28038114996412256,-0.12855359607471298,0.4069040900876618,-0.06544833554211575,-0.4178382137051898,-0.047953783516137535,-0.41283973758200565]","[1,1,1,1,1,1,1,1,1]","[0,0,0,0,0,0,0,0,0]","[0,0,0,0,0,0,0,0,0]","[1.4269999999999925,2.075899999999905,2.6488000000002785,3.2488999999999066,3.990600000000086,4.548899999999904,5.057200000000179,5.602999999999994,6.610100000000088]","[""blk1"",""blk2"",""blk3"",""blk4"",""blk5"",""blk6"",""blk7""]","[1,1,1,1,1,1,1]",1,77.2041,78.2046,5,0,5,0,1,
,,,,,,,,,526470,001,2024-02-16_15h12.12.938,corsi_blocks,2023.2.2,Win32,241.7210539,78.205,"[[0.16625,0.3825],[-0.675,0.29875],[-0.01125,-0.295],[0.365,-0.27625],[0.1925,-0.295],[-0.24625,0.04375],[0.45375,0.175],[-0.01875,0.235],[0.0675,0.07375]]",78.7045,78.7054,79.2048,0,0,0,0,1,,,,,,,,,,,,,,,,,,,
,,,,,,,,,526470,001,2024-02-16_15h12.12.938,corsi_blocks,2023.2.2,Win32,241.7210539,,,,79.2052,79.7046,1,0,1,0,1,,,,,,,,,,,,,,,,,,,
,,,,,,,,,526470,001,2024-02-16_15h12.12.938,corsi_blocks,2023.2.2,Win32,241.7210539,,,,79.7049,80.2046,2,0,2,0,1,,,,,,,,,,,,,,,,,,,
,,,,,,,,,526470,001,2024-02-16_15h12.12.938,corsi_blocks,2023.2.2,Win32,241.7210539,,,,80.205,80.7047,3,0,3,0,1,,,,,,,,,,,,,,,,,,,
,,,,,,,,,526470,001,2024-02-16_15h12.12.938,corsi_blocks,2023.2.2,Win32,241.7210539,,,,80.7051,81.2046,4,0,4,0,1,,,,,,,,,,,,,,,,,,,
,,,,,,,,,526470,001,2024-02-16_15h12.12.938,corsi_blocks,2023.2.2,Win32,241.7210539,,,,81.205,81.7045,5,0,5,0,1,,,,,,,,,,,,,,,,,,,
,,,,,,,,,526470,001,2024-02-16_15h12.12.938,corsi_blocks,2023.2.2,Win32,241.7210539,,,,81.7048,82.2046,6,0,6,0,1,,,,,,,,,,,,,,,,,,,
,,,,,,,,,526470,001,2024-02-16_15h12.12.938,corsi_blocks,2023.2.2,Win32,241.7210539,,,,82.2049,82.7025,7,0,7,0,1,,,,,,,,,,,,,,,,,,,
,,,,,,,,,526470,001,2024-02-16_15h12.12.938,corsi_blocks,2023.2.2,Win32,241.7210539,,,,,,,,,,,82.7026,91.602,"[-0.6793189580572355,-0.010153058095858716,0.3722275051985708,0.15042174320524837,-0.2425804245438437,0.18166201876610824,0.44033118465176896,-0.05826300466406982,0.49219001691365977]","[0.31193376592977534,-0.2953764639285087,-0.2935020496829604,0.3694157980263736,0.06451107121675843,-0.2928772258669166,0.17697592594965442,0.2482036672804885,-0.38597317153086924]","[1,1,1,1,1,1,1,1,1]","[0,0,0,0,0,0,0,0,0]","[0,0,0,0,0,0,0,0,0]","[0.9055999999996232,2.08889999999991,5.01809999999962,5.776499999999999,6.362399999999909,7.0443999999998965,7.641399999999905,8.197099999999622,8.898899999999898]","[""blk2"",""blk3"",""blk4"",""blk1"",""blk6"",""blk5"",""blk7"",""blk8""]","[0,0,0,0,0,0,1,1]",0,91.6023,92.6023,6,0,6,0,1,
,,,,,,,,,526470,001,2024-02-16_15h12.12.938,corsi_blocks,2023.2.2,Win32,241.7210539,92.6025,"[[-0.485,0.34625],[0.6375,0.27375],[-0.26625,0.235],[0.16625,0.3825],[0.45375,0.175],[0.365,-0.27625],[-0.09875,0.065],[0.25625,0.0975],[-0.675,0.29875]]",93.1012,93.102,93.6024,0,0,0,0,1,,,,,,,,,,,,,,,,,,,
,,,,,,,,,526470,001,2024-02-16_15h12.12.938,corsi_blocks,2023.2.2,Win32,241.7210539,,,,93.6027,94.1027,1,0,1,0,1,,,,,,,,,,,,,,,,,,,
,,,,,,,,,526470,001,2024-02-16_15h12.12.938,corsi_blocks,2023.2.2,Win32,241.7210539,,,,94.103,94.6026,2,0,2,0,1,,,,,,,,,,,,,,,,,,,
,,,,,,,,,526470,001,2024-02-16_15h12.12.938,corsi_blocks,2023.2.2,Win32,241.7210539,,,,94.6028,95.1025,3,0,3,0,1,,,,,,,,,,,,,,,,,,,
,,,,,,,,,526470,001,2024-02-16_15h12.12.938,corsi_blocks,2023.2.2,Win32,241.7210539,,,,95.1027,95.6028,4,0,4,0,1,,,,,,,,,,,,,,,,,,,
,,,,,,,,,526470,001,2024-02-16_15h12.12.938,corsi_blocks,2023.2.2,Win32,241.7210539,,,,95.6029,96.1024,5,0,5,0,1,,,,,,,,,,,,,,,,,,,
,,,,,,,,,526470,001,2024-02-16_15h12.12.938,corsi_blocks,2023.2.2,Win32,241.7210539,,,,96.1025,96.6002,6,0,6,0,1,,,,,,,,,,,,,,,,,,,
,,,,,,,,,526470,001,2024-02-16_15h12.12.938,corsi_blocks,2023.2.2,Win32,241.7210539,,,,96.6005,97.1006,7,0,7,0,1,,,,,,,,,,,,,,,,,,,
,,,,,,,,,526470,001,2024-02-16_15h12.12.938,corsi_blocks,2023.2.2,Win32,241.7210539,,,,,,,,,,,97.1007,106.725,"[-0.3844111119907597,-0.46251171508903466,-0.23195876288659795,0.16104346206507733,0.57841307220888,0.6252734283475867,0.46157450796626054,0.3647298482163777,-0.15573254543257967,-0.11512025584656162,0.24851616499238519,0.4990627928772259]","[0.34504841283424614,0.3506716555708909,0.24070601029829544,0.39878163074039363,0.28131832848560506,0.2713214620431115,0.17260230224380566,-0.2703842549203374,0.08450483270303713,0.0607622427256619,0.08887845640888589,-0.3865979381443299]","[1,1,1,1,1,1,1,1,1,1,1,1]","[0,0,0,0,0,0,0,0,0,0,0,0]","[0,0,0,0,0,0,0,0,0,0,0,0]","[1.7240000000000038,2.297399999999911,2.638899999999907,3.1472000000001827,3.730600000000095,4.1348999999999165,5.954799999999821,7.741899999999916,8.142499999999998,8.653999999999996,9.034600000000097,9.623600000000096]","[""blk1"",""blk3"",""blk4"",""blk2"",""blk5"",""blk6"",""blk7"",""blk8""]","[1,0,0,0,1,1,1,1]",0,106.7253,107.7278,7,0,7,0,1,
,,,,,,,,,526470,001,2024-02-16_15h12.12.938,corsi_blocks,2023.2.2,Win32,241.7210539,107.728,"[[-0.18625,0.41125],[-0.09875,0.065],[-0.16125,-0.28],[0.57875,-0.31375],[0.05875,-0.0575],[0.1925,-0.295],[-0.285,-0.27125],[-0.55125,-0.13375],[0.0675,0.07375]]",108.2266,108.2272,108.725,0,0,0,0,1,,,,,,,,,,,,,,,,,,,
,,,,,,,,,526470,001,2024-02-16_15h12.12.938,corsi_blocks,2023.2.2,Win32,241.7210539,,,,108.7254,109.2234,1,0,1,0,1,,,,,,,,,,,,,,,,,,,
,,,,,,,,,526470,001,2024-02-16_15h12.12.938,corsi_blocks,2023.2.2,Win32,241.7210539,,,,109.2237,109.7228,2,0,2,0,1,,,,,,,,,,,,,,,,,,,
,,,,,,,,,526470,001,2024-02-16_15h12.12.938,corsi_blocks,2023.2.2,Win32,241.7210539,,,,109.723,110.2232,3,0,3,0,1,,,,,,,,,,,,,,,,,,,
,,,,,,,,,526470,001,2024-02-16_15h12.12.938,corsi_blocks,2023.2.2,Win32,241.7210539,,,,110.2233,110.7207,4,0,4,0,1,,,,,,,,,,,,,,,,,,,
,,,,,,,,,526470,001,2024-02-16_15h12.12.938,corsi_blocks,2023.2.2,Win32,241.7210539,,,,110.7208,111.2218,5,0,5,0,1,,,,,,,,,,,,,,,,,,,
,,,,,,,,,526470,001,2024-02-16_15h12.12.938,corsi_blocks,2023.2.2,Win32,241.7210539,,,,111.2222,111.7211,6,0,6,0,1,,,,,,,,,,,,,,,,,,,
,,,,,,,,,526470,001,2024-02-16_15h12.12.938,corsi_blocks,2023.2.2,Win32,241.7210539,,,,111.7214,112.2189,7,0,7,0,1,,,,,,,,,,,,,,,,,,,
,,,,,,,,,526470,001,2024-02-16_15h12.12.938,corsi_blocks,2023.2.2,Win32,241.7210539,,,,,,,,,,,112.2191,120.0251,"[-0.16635426429240863,-0.16073102155576383,-0.11512025584656162,0.24039362699156513,0.5996563955233716,0.04358013120899719,-0.24945325770999296,-0.6024679739897566,-0.5524835988753515,0.5003124405093134]","[0.41502654943493,-0.28288038802571464,0.05326458574346884,-0.3216182633661844,-0.29662605435801315,-0.045454545454545456,-0.276632321473026,-0.07669482101540534,-0.12730400564520852,-0.4147141518275539]","[1,1,1,1,1,1,1,1,1,1]","[0,0,0,0,0,0,0,0,0,0]","[0,0,0,0,0,0,0,0,0,0]","[1.945300000000259,2.7592000000001633,3.2992000000001838,3.790200000000169,4.41880000000026,6.269700000000171,6.670300000000253,6.994999999999976,7.250899999999888,7.805100000000067]","[""blk1"",""blk3"",""blk2"",""blk6"",""blk4"",""blk5"",""blk7"",""blk8""]","[1,0,0,0,0,0,1,1]",0,120.0257,121.0247,8,0,8,0,1,
,,,,,,,,,526470,001,2024-02-16_15h12.12.938,corsi_blocks,2023.2.2,Win32,241.7210539,,,,,,,,,,,,,,,,,,,,,,,,,,,,,121.025