instructions.started,instructions.stopped,key_resp.keys,mouse.x,mouse.y,mouse.leftButton,mouse.midButton,mouse.rightButton,mouse.time,participant,session,date,expName,psychopyVersion,OS,frameRate,ISI.started,positions,ISI.stopped,corsi_present.started,corsi_present.stopped,block_sequence.thisRepN,block_sequence.thisTrialN,block_sequence.thisN,block_sequence.thisIndex,block_sequence.ran,corsi_respond.started,corsi_respond.stopped,corsi_mouse.x,corsi_mouse.y,corsi_mouse.leftButton,corsi_mouse.midButton,corsi_mouse.rightButton,corsi_mouse.time,corsi_mouse.clicked_name,correct_list,corsi_correct,feedback.started,feedback.stopped,corsi_task.thisRepN,corsi_task.thisTrialN,corsi_task.thisN,corsi_task.thisIndex,corsi_task.ran,corsi_task.order
0.0002,16.1302,,0.02872328,-0.235015869,1,0,0,16.1256,549251,001,2024-02-19_14h59.24.797,corsi_blocks,2023.2.2,MacIntel,59.88023952,,,,,,,,,,,,,,,,,,,,,,,,,,,,,
,,,,,,,,,549251,001,2024-02-19_14h59.24.797,corsi_blocks,2023.2.2,MacIntel,59.88023952,16.144,"[[-0.485,0.34625],[0.05875,-0.0575],[-0.09875,0.065],[0.22,0.2425],[-0.18625,0.41125],[0.19375,-0.17125],[-0.4075,0.11875],[0.45375,0.175],[0.28875,0.39875]]",16.6323,16.6369,17.134,0,0,0,0,1,,,,,,,,,,,,,,,,,,,
,,,,,,,,,549251,001,2024-02-19_14h59.24.797,corsi_blocks,2023.2.2,MacIntel,59.88023952,,,,17.1359,17.6315,1,0,1,0,1,,,,,,,,,,,,,,,,,,,
,,,,,,,,,549251,001,2024-02-19_14h59.24.797,corsi_blocks,2023.2.2,MacIntel,59.88023952,,,,17.6324,18.1375,2,0,2,0,1,,,,,,,,,,,,,,,,,,,
,,,,,,,,,549251,001,2024-02-19_14h59.24.797,corsi_blocks,2023.2.2,MacIntel,59.88023952,,,,,,,,,,,18.139,28.9999,"[-0.06437967936197916,0.04198581271701389,-0.47144582112630207,0.5387744140625]","[0.048121812608506946,-0.0372802734375,0.36135460747612846,-0.42287706163194444]","[1,1,1,1]","[0,0,0,0]","[0,0,0,0]","[6.313400000005963,6.975200000017882,8.323600000023845,10.843100000023842]","[""blk3"",""blk2"",""blk1""]","[0,1,0]",0,29.0005,30.0016,0,0,0,0,1,
,,,,,,,,,549251,001,2024-02-19_14h59.24.797,corsi_blocks,2023.2.2,MacIntel,59.88023952,30.0034,"[[0.05875,-0.0575],[0.365,-0.27625],[0.45375,0.175],[-0.675,0.29875],[-0.3575,-0.05625],[0.4625,0.35875],[-0.09875,0.065],[0.22,0.2425],[0.62875,-0.1825]]",30.4993,30.5008,31.0015,0,0,0,0,1,,,,,,,,,,,,,,,,,,,
,,,,,,,,,549251,001,2024-02-19_14h59.24.797,corsi_blocks,2023.2.2,MacIntel,59.88023952,,,,31.0029,31.4991,1,0,1,0,1,,,,,,,,,,,,,,,,,,,
,,,,,,,,,549251,001,2024-02-19_14h59.24.797,corsi_blocks,2023.2.2,MacIntel,59.88023952,,,,31.5,31.9982,2,0,2,0,1,,,,,,,,,,,,,,,,,,,
,,,,,,,,,549251,001,2024-02-19_14h59.24.797,corsi_blocks,2023.2.2,MacIntel,59.88023952,,,,,,,,,,,31.9984,35.9014,"[0.06548597547743056,0.36023980034722225,0.4609452311197917,0.5073973253038194]","[-0.03656253390842014,-0.26738450792100693,0.18692064073350695,-0.4039031982421875]","[1,1,1,1]","[0,0,0,0]","[0,0,0,0]","[0.847999999999999,1.8015000000000043,2.848699999988078,3.90119999998808]","[""blk1"",""blk2"",""blk3""]","[1,1,1]",1,35.9021,36.8978,1,0,1,0,1,
,,,,,,,,,549251,001,2024-02-19_14h59.24.797,corsi_blocks,2023.2.2,MacIntel,59.88023952,36.8983,"[[0.19375,-0.17125],[0.16625,0.3825],[0.4125,-0.1325],[0.1925,-0.295],[0.62875,-0.1825],[-0.3575,-0.05625],[0.03125,-0.41],[0.28875,0.39875],[-0.35125,0.36625]]",37.4006,37.4042,37.8985,0,0,0,0,1,,,,,,,,,,,,,,,,,,,
,,,,,,,,,549251,001,2024-02-19_14h59.24.797,corsi_blocks,2023.2.2,MacIntel,59.88023952,,,,37.899,38.3993,1,0,1,0,1,,,,,,,,,,,,,,,,,,,
,,,,,,,,,549251,001,2024-02-19_14h59.24.797,corsi_blocks,2023.2.2,MacIntel,59.88023952,,,,38.4,38.9011,2,0,2,0,1,,,,,,,,,,,,,,,,,,,
,,,,,,,,,549251,001,2024-02-19_14h59.24.797,corsi_blocks,2023.2.2,MacIntel,59.88023952,,,,38.9015,39.3993,3,0,3,0,1,,,,,,,,,,,,,,,,,,,
,,,,,,,,,549251,001,2024-02-19_14h59.24.797,corsi_blocks,2023.2.2,MacIntel,59.88023952,,,,,,,,,,,39.3995,43.4361,"[0.1966048855251736,0.190030517578125,0.42926676432291666,0.1931995307074653,0.49577772352430555]","[-0.14365281846788194,0.35789443969726564,-0.14131659613715278,-0.3100191921657986,-0.40402153862847223]","[1,1,1,1,1]","[0,0,0,0,0]","[0,0,0,0,0]","[0.4980999999940394,1.25,2.200499999999998,2.8992999999821194,4.034499999999994]","[""blk1"",""blk2"",""blk3"",""blk4""]","[1,1,1,1]",1,43.4366,44.4325,2,0,2,0,1,
,,,,,,,,,549251,001,2024-02-19_14h59.24.797,corsi_blocks,2023.2.2,MacIntel,59.88023952,44.433,"[[0.57875,-0.31375],[0.45375,0.175],[0.54,0.03625],[-0.0225,0.395],[0.03125,-0.41],[-0.45875,-0.3],[0.22,0.2425],[-0.3575,-0.05625],[-0.12125,-0.12625]]",44.9321,44.934,45.436,0,0,0,0,1,,,,,,,,,,,,,,,,,,,
,,,,,,,,,549251,001,2024-02-19_14h59.24.797,corsi_blocks,2023.2.2,MacIntel,59.88023952,,,,45.4385,45.9341,1,0,1,0,1,,,,,,,,,,,,,,,,,,,
,,,,,,,,,549251,001,2024-02-19_14h59.24.797,corsi_blocks,2023.2.2,MacIntel,59.88023952,,,,45.9346,46.4331,2,0,2,0,1,,,,,,,,,,,,,,,,,,,
,,,,,,,,,549251,001,2024-02-19_14h59.24.797,corsi_blocks,2023.2.2,MacIntel,59.88023952,,,,46.4344,46.936,3,0,3,0,1,,,,,,,,,,,,,,,,,,,
,,,,,,,,,549251,001,2024-02-19_14h59.24.797,corsi_blocks,2023.2.2,MacIntel,59.88023952,,,,46.937,47.4335,4,0,4,0,1,,,,,,,,,,,,,,,,,,,
,,,,,,,,,549251,001,2024-02-19_14h59.24.797,corsi_blocks,2023.2.2,MacIntel,59.88023952,,,,,,,,,,,47.434,54.2529,"[0.6094354926215277,0.4767624240451389,0.5164017740885417,-0.041392686631944446,0.06882724338107639,0.5254372829861111]","[-0.3029297553168403,0.14374643961588543,0.07575307210286458,0.40604073418511283,-0.4045071750217014,-0.3994959852430556]","[1,1,1,1,1,1]","[0,0,0,0,0,0]","[0,0,0,0,0,0]","[1.0120000000000005,1.9307999999821206,2.462799999982117,3.2967999999821203,4.23129999998212,6.81439999997616]","[""blk1"",""blk2"",""blk3"",""blk4"",""blk5""]","[1,1,1,1,1]",1,54.2534,55.2504,3,0,3,0,1,
,,,,,,,,,549251,001,2024-02-19_14h59.24.797,corsi_blocks,2023.2.2,MacIntel,59.88023952,55.2511,"[[-0.4075,0.11875],[-0.35125,0.36625],[-0.6025,0.0725],[-0.0225,0.395],[-0.68625,-0.225],[-0.01875,0.235],[-0.26625,0.235],[-0.16125,-0.28],[0.57875,-0.31375]]",55.7518,55.7548,56.2515,0,0,0,0,1,,,,,,,,,,,,,,,,,,,
,,,,,,,,,549251,001,2024-02-19_14h59.24.797,corsi_blocks,2023.2.2,MacIntel,59.88023952,,,,56.2519,56.7513,1,0,1,0,1,,,,,,,,,,,,,,,,,,,
,,,,,,,,,549251,001,2024-02-19_14h59.24.797,corsi_blocks,2023.2.2,MacIntel,59.88023952,,,,56.7517,57.2518,2,0,2,0,1,,,,,,,,,,,,,,,,,,,
,,,,,,,,,549251,001,2024-02-19_14h59.24.797,corsi_blocks,2023.2.2,MacIntel,59.88023952,,,,57.2522,57.7517,3,0,3,0,1,,,,,,,,,,,,,,,,,,,
,,,,,,,,,549251,001,2024-02-19_14h59.24.797,corsi_blocks,2023.2.2,MacIntel,59.88023952,,,,57.7522,58.2524,4,0,4,0,1,,,,,,,,,,,,,,,,,,,
,,,,,,,,,549251,001,2024-02-19_14h59.24.797,corsi_blocks,2023.2.2,MacIntel,59.88023952,,,,58.2528,58.7525,5,0,5,0,1,,,,,,,,,,,,,,,,,,,
,,,,,,,,,549251,001,2024-02-19_14h59.24.797,corsi_blocks,2023.2.2,MacIntel,59.88023952,,,,,,,,,,,58.7527,69.8498,"[-0.38794901529947917,-0.3765110270182292,-0.2937606472439236,-0.2806905449761285,-0.2846392822265625,-0.2846392822265625,-0.6018783569335937,-0.010373128255208334,-0.6846712409125434,0.5031962076822917,0.47768798828125]","[0.12357760959201389,0.3790119086371528,0.2488464864095052,0.2308722432454427,0.24529203626844617,0.24529203626844617,0.06180491129557292,0.39313851250542536,-0.21915581597222222,-0.43517266167534724,-0.4089590793185764]","[1,1,1,1,1,1,1,1,1,1,1]","[0,0,0,0,0,0,0,0,0,0,0]","[0,0,0,0,0,0,0,0,0,0,0]","[0.24780000001192093,0.7965000000000018,1.8631000000238416,4.346499999999992,5.47999999999999,5.762800000011907,6.663300000011915,7.613700000017872,8.496900000005951,10.263800000011912,11.095499999999987]","[""blk1"",""blk2"",""blk7"",""blk7"",""blk7"",""blk7"",""blk3"",""blk4"",""blk5""]","[1,1,0,0,0,0]",0,69.8509,70.8507,4,0,4,0,1,
,,,,,,,,,549251,001,2024-02-19_14h59.24.797,corsi_blocks,2023.2.2,MacIntel,59.88023952,70.8513,"[[-0.3575,-0.05625],[-0.68625,-0.225],[0.28875,0.39875],[0.62875,-0.1825],[-0.485,0.34625],[-0.45875,-0.3],[-0.01125,-0.295],[-0.35125,0.36625],[-0.675,0.29875]]",71.35,71.3515,71.854,0,0,0,0,1,,,,,,,,,,,,,,,,,,,
,,,,,,,,,549251,001,2024-02-19_14h59.24.797,corsi_blocks,2023.2.2,MacIntel,59.88023952,,,,71.8544,72.3506,1,0,1,0,1,,,,,,,,,,,,,,,,,,,
,,,,,,,,,549251,001,2024-02-19_14h59.24.797,corsi_blocks,2023.2.2,MacIntel,59.88023952,,,,72.351,72.8506,2,0,2,0,1,,,,,,,,,,,,,,,,,,,
,,,,,,,,,549251,001,2024-02-19_14h59.24.797,corsi_blocks,2023.2.2,MacIntel,59.88023952,,,,72.8509,73.3534,3,0,3,0,1,,,,,,,,,,,,,,,,,,,
,,,,,,,,,549251,001,2024-02-19_14h59.24.797,corsi_blocks,2023.2.2,MacIntel,59.88023952,,,,73.3539,73.8525,4,0,4,0,1,,,,,,,,,,,,,,,,,,,
,,,,,,,,,549251,001,2024-02-19_14h59.24.797,corsi_blocks,2023.2.2,MacIntel,59.88023952,,,,73.8555,74.3507,5,0,5,0,1,,,,,,,,,,,,,,,,,,,
,,,,,,,,,549251,001,2024-02-19_14h59.24.797,corsi_blocks,2023.2.2,MacIntel,59.88023952,,,,,,,,,,,74.3508,80.7864,"[-0.3701689995659722,-0.6751697794596354,0.32895528157552084,0.6650371636284722,-0.44584682888454863,-0.44296875,0.5379055447048611]","[-0.08809624565972222,-0.22844245062934027,0.42035914103190103,-0.18471645779079862,0.3725326199001736,-0.28420918782552085,-0.39456746419270833]","[1,1,1,1,1,1,1]","[0,0,0,0,0,0,0]","[0,0,0,0,0,0,0]","[0.414199999988071,0.9638000000119149,1.7803000000119198,2.8120999999940324,3.71369999998808,5.43040000000596,6.431199999988081]","[""blk1"",""blk2"",""blk3"",""blk4"",""blk5"",""blk6""]","[1,1,1,1,1,1]",1,80.7875,81.7853,5,0,5,0,1,
,,,,,,,,,549251,001,2024-02-19_14h59.24.797,corsi_blocks,2023.2.2,MacIntel,59.88023952,81.7856,"[[0.0675,0.07375],[-0.01875,0.235],[0.1925,-0.295],[0.25625,0.0975],[-0.675,0.29875],[-0.12125,-0.12625],[0.30125,-0.0175],[-0.6025,0.0725],[-0.18625,0.41125]]",82.2857,82.2874,82.7888,0,0,0,0,1,,,,,,,,,,,,,,,,,,,
,,,,,,,,,549251,001,2024-02-19_14h59.24.797,corsi_blocks,2023.2.2,MacIntel,59.88023952,,,,82.7901,83.2852,1,0,1,0,1,,,,,,,,,,,,,,,,,,,
,,,,,,,,,549251,001,2024-02-19_14h59.24.797,corsi_blocks,2023.2.2,MacIntel,59.88023952,,,,83.2856,83.7843,2,0,2,0,1,,,,,,,,,,,,,,,,,,,
,,,,,,,,,549251,001,2024-02-19_14h59.24.797,corsi_blocks,2023.2.2,MacIntel,59.88023952,,,,83.7847,84.2853,3,0,3,0,1,,,,,,,,,,,,,,,,,,,
,,,,,,,,,549251,001,2024-02-19_14h59.24.797,corsi_blocks,2023.2.2,MacIntel,59.88023952,,,,84.2858,84.7866,4,0,4,0,1,,,,,,,,,,,,,,,,,,,
,,,,,,,,,549251,001,2024-02-19_14h59.24.797,corsi_blocks,2023.2.2,MacIntel,59.88023952,,,,84.7869,85.2851,5,0,5,0,1,,,,,,,,,,,,,,,,,,,
,,,,,,,,,549251,001,2024-02-19_14h59.24.797,corsi_blocks,2023.2.2,MacIntel,59.88023952,,,,85.2854,85.7864,6,0,6,0,1,,,,,,,,,,,,,,,,,,,
,,,,,,,,,549251,001,2024-02-19_14h59.24.797,corsi_blocks,2023.2.2,MacIntel,59.88023952,,,,,,,,,,,85.7866,,,,,,,,,,,,,6,0,6,0,1,999