instructions.started,instructions.stopped,key_resp.keys,key_resp.rt,key_resp.duration,mouse.x,mouse.y,mouse.leftButton,mouse.midButton,mouse.rightButton,mouse.time,participant,session,date,expName,psychopyVersion,OS,frameRate,ISI.started,positions,ISI.stopped,corsi_present.started,corsi_present.stopped,block_sequence.thisRepN,block_sequence.thisTrialN,block_sequence.thisN,block_sequence.thisIndex,block_sequence.ran,corsi_respond.started,corsi_respond.stopped,corsi_mouse.x,corsi_mouse.y,corsi_mouse.leftButton,corsi_mouse.midButton,corsi_mouse.rightButton,corsi_mouse.time,corsi_mouse.clicked_name,correct_list,corsi_correct,feedback.started,feedback.stopped,corsi_task.thisRepN,corsi_task.thisTrialN,corsi_task.thisN,corsi_task.thisIndex,corsi_task.ran,end.started
0.001,5.233,space,5.201,,,,,,,,728911,001,2024-02-19_13h27.48.122,corsi_blocks,2023.2.2,MacIntel,58.82352941,,,,,,,,,,,,,,,,,,,,,,,,,,,,,
,,,,,,,,,,,728911,001,2024-02-19_13h27.48.122,corsi_blocks,2023.2.2,MacIntel,58.82352941,5.248,"[[0.54,0.03625],[-0.35125,0.36625],[0.0675,0.07375],[-0.09875,0.065],[0.365,-0.27625],[-0.68625,-0.225],[-0.01875,0.235],[0.30125,-0.0175],[-0.16125,-0.28]]",5.734,5.736,6.234,0,0,0,0,1,,,,,,,,,,,,,,,,,,,
,,,,,,,,,,,728911,001,2024-02-19_13h27.48.122,corsi_blocks,2023.2.2,MacIntel,58.82352941,,,,6.235,6.734,1,0,1,0,1,,,,,,,,,,,,,,,,,,,
,,,,,,,,,,,728911,001,2024-02-19_13h27.48.122,corsi_blocks,2023.2.2,MacIntel,58.82352941,,,,6.734,7.236,2,0,2,0,1,,,,,,,,,,,,,,,,,,,
,,,,,,,,,,,728911,001,2024-02-19_13h27.48.122,corsi_blocks,2023.2.2,MacIntel,58.82352941,,,,,,,,,,,7.236,13.389,"[0.3025,-0.3175,-0.09,0.4525]","[0.00125,0.345,0.075,-0.38375]","[1,1,1,1]","[0,0,0,0]","[0,0,0,0]","[3.365999999999998,4.134999999999996,4.663999999999996,6.146999999999997]","[""blk8"",""blk2"",""blk4""]","[0,1,0]",0,13.389,14.388,0,0,0,0,1,
,,,,,,,,,,,728911,001,2024-02-19_13h27.48.122,corsi_blocks,2023.2.2,MacIntel,58.82352941,14.388,"[[0.365,-0.27625],[0.62875,-0.1825],[-0.4075,0.11875],[0.03125,-0.41],[-0.01125,-0.295],[-0.485,0.34625],[-0.35125,0.36625],[-0.68625,-0.225],[-0.285,-0.27125]]",14.888,14.889,15.389,0,0,0,0,1,,,,,,,,,,,,,,,,,,,
,,,,,,,,,,,728911,001,2024-02-19_13h27.48.122,corsi_blocks,2023.2.2,MacIntel,58.82352941,,,,15.389,15.888,1,0,1,0,1,,,,,,,,,,,,,,,,,,,
,,,,,,,,,,,728911,001,2024-02-19_13h27.48.122,corsi_blocks,2023.2.2,MacIntel,58.82352941,,,,15.889,16.389,2,0,2,0,1,,,,,,,,,,,,,,,,,,,
,,,,,,,,,,,728911,001,2024-02-19_13h27.48.122,corsi_blocks,2023.2.2,MacIntel,58.82352941,,,,,,,,,,,16.389,19.326,"[0.36875,0.62625,-0.425,0.5275]","[-0.28875,-0.205,0.095,-0.41125]","[1,1,1,1]","[0,0,0,0]","[0,0,0,0]","[0.8659999999999997,1.4149999999999991,2.0839999999999996,2.934000000000001]","[""blk1"",""blk2"",""blk3""]","[1,1,1]",1,19.326,20.324,1,0,1,0,1,
,,,,,,,,,,,728911,001,2024-02-19_13h27.48.122,corsi_blocks,2023.2.2,MacIntel,58.82352941,20.324,"[[-0.16125,-0.28],[0.25625,0.0975],[0.45375,0.175],[-0.285,-0.27125],[0.05875,-0.0575],[0.0675,0.07375],[-0.485,0.34625],[-0.4075,0.11875],[0.6375,0.27375]]",20.824,20.825,21.325,0,0,0,0,1,,,,,,,,,,,,,,,,,,,
,,,,,,,,,,,728911,001,2024-02-19_13h27.48.122,corsi_blocks,2023.2.2,MacIntel,58.82352941,,,,21.325,21.824,1,0,1,0,1,,,,,,,,,,,,,,,,,,,
,,,,,,,,,,,728911,001,2024-02-19_13h27.48.122,corsi_blocks,2023.2.2,MacIntel,58.82352941,,,,21.825,22.324,2,0,2,0,1,,,,,,,,,,,,,,,,,,,
,,,,,,,,,,,728911,001,2024-02-19_13h27.48.122,corsi_blocks,2023.2.2,MacIntel,58.82352941,,,,22.325,22.825,3,0,3,0,1,,,,,,,,,,,,,,,,,,,
,,,,,,,,,,,728911,001,2024-02-19_13h27.48.122,corsi_blocks,2023.2.2,MacIntel,58.82352941,,,,,,,,,,,22.825,26.314,"[-0.1475,0.255,0.4725,-0.27375,0.4625]","[-0.3175,0.07625,0.15625,-0.25375,-0.40375]","[1,1,1,1,1]","[0,0,0,0,0]","[0,0,0,0,0]","[0.7160000000000011,1.483000000000004,1.9840000000000018,2.719000000000001,3.4879999999999995]","[""blk1"",""blk2"",""blk3"",""blk4""]","[1,1,1,1]",1,26.314,27.311,2,0,2,0,1,
,,,,,,,,,,,728911,001,2024-02-19_13h27.48.122,corsi_blocks,2023.2.2,MacIntel,58.82352941,27.311,"[[-0.0225,0.395],[-0.285,-0.27125],[-0.01125,-0.295],[0.0675,0.07375],[-0.6025,0.0725],[0.57875,-0.31375],[0.05875,-0.0575],[0.30125,-0.0175],[-0.09875,0.065]]",27.81,27.811,28.314,0,0,0,0,1,,,,,,,,,,,,,,,,,,,
,,,,,,,,,,,728911,001,2024-02-19_13h27.48.122,corsi_blocks,2023.2.2,MacIntel,58.82352941,,,,28.315,28.811,1,0,1,0,1,,,,,,,,,,,,,,,,,,,
,,,,,,,,,,,728911,001,2024-02-19_13h27.48.122,corsi_blocks,2023.2.2,MacIntel,58.82352941,,,,28.811,29.311,2,0,2,0,1,,,,,,,,,,,,,,,,,,,
,,,,,,,,,,,728911,001,2024-02-19_13h27.48.122,corsi_blocks,2023.2.2,MacIntel,58.82352941,,,,29.311,29.815,3,0,3,0,1,,,,,,,,,,,,,,,,,,,
,,,,,,,,,,,728911,001,2024-02-19_13h27.48.122,corsi_blocks,2023.2.2,MacIntel,58.82352941,,,,29.816,30.312,4,0,4,0,1,,,,,,,,,,,,,,,,,,,
,,,,,,,,,,,728911,001,2024-02-19_13h27.48.122,corsi_blocks,2023.2.2,MacIntel,58.82352941,,,,,,,,,,,30.313,33.98,"[0.00625,-0.26,-0.00875,0.06125,-0.63125,0.5275]","[0.4075,-0.22625,-0.2825,0.10625,0.09875,-0.42625]","[1,1,1,1,1,1]","[0,0,0,0,0,0]","[0,0,0,0,0,0]","[0.46399999999999864,1.1809999999999974,1.6159999999999926,2.2679999999999936,2.9839999999999947,3.664999999999999]","[""blk1"",""blk2"",""blk3"",""blk4"",""blk5""]","[1,1,1,1,1]",1,33.98,34.985,3,0,3,0,1,
,,,,,,,,,,,728911,001,2024-02-19_13h27.48.122,corsi_blocks,2023.2.2,MacIntel,58.82352941,34.985,"[[0.16625,0.3825],[-0.485,0.34625],[0.6375,0.27375],[0.4125,-0.1325],[0.62875,-0.1825],[0.365,-0.27625],[-0.12125,-0.12625],[-0.0225,0.395],[-0.4075,0.11875]]",35.481,35.481,35.981,0,0,0,0,1,,,,,,,,,,,,,,,,,,,
,,,,,,,,,,,728911,001,2024-02-19_13h27.48.122,corsi_blocks,2023.2.2,MacIntel,58.82352941,,,,35.981,36.481,1,0,1,0,1,,,,,,,,,,,,,,,,,,,
,,,,,,,,,,,728911,001,2024-02-19_13h27.48.122,corsi_blocks,2023.2.2,MacIntel,58.82352941,,,,36.482,36.982,2,0,2,0,1,,,,,,,,,,,,,,,,,,,
,,,,,,,,,,,728911,001,2024-02-19_13h27.48.122,corsi_blocks,2023.2.2,MacIntel,58.82352941,,,,36.982,37.485,3,0,3,0,1,,,,,,,,,,,,,,,,,,,
,,,,,,,,,,,728911,001,2024-02-19_13h27.48.122,corsi_blocks,2023.2.2,MacIntel,58.82352941,,,,37.486,37.982,4,0,4,0,1,,,,,,,,,,,,,,,,,,,
,,,,,,,,,,,728911,001,2024-02-19_13h27.48.122,corsi_blocks,2023.2.2,MacIntel,58.82352941,,,,37.983,38.483,5,0,5,0,1,,,,,,,,,,,,,,,,,,,
,,,,,,,,,,,728911,001,2024-02-19_13h27.48.122,corsi_blocks,2023.2.2,MacIntel,58.82352941,,,,,,,,,,,38.483,43.271,"[0.155,-0.43875,0.61625,0.37625,0.61625,0.64,0.38625,0.42625]","[0.4075,0.365,0.3125,-0.15875,-0.14,-0.175,-0.2575,-0.41875]","[1,1,1,1,1,1,1,1]","[0,0,0,0,0,0,0,0]","[0,0,0,0,0,0,0,0]","[0.5160000000000053,1.1810000000000045,1.7820000000000036,2.350999999999999,2.881999999999998,3.75,4.369,4.785000000000004]","[""blk1"",""blk2"",""blk3"",""blk4"",""blk5"",""blk5"",""blk6""]","[1,1,1,1,1,1]",1,43.271,44.269,4,0,4,0,1,
,,,,,,,,,,,728911,001,2024-02-19_13h27.48.122,corsi_blocks,2023.2.2,MacIntel,58.82352941,44.269,"[[-0.24625,0.04375],[-0.45875,-0.3],[-0.6025,0.0725],[0.05875,-0.0575],[-0.4075,0.11875],[-0.18625,0.41125],[0.0675,0.07375],[-0.16125,-0.28],[0.30125,-0.0175]]",44.769,44.77,45.268,0,0,0,0,1,,,,,,,,,,,,,,,,,,,
,,,,,,,,,,,728911,001,2024-02-19_13h27.48.122,corsi_blocks,2023.2.2,MacIntel,58.82352941,,,,45.269,45.769,1,0,1,0,1,,,,,,,,,,,,,,,,,,,
,,,,,,,,,,,728911,001,2024-02-19_13h27.48.122,corsi_blocks,2023.2.2,MacIntel,58.82352941,,,,45.77,46.27,2,0,2,0,1,,,,,,,,,,,,,,,,,,,
,,,,,,,,,,,728911,001,2024-02-19_13h27.48.122,corsi_blocks,2023.2.2,MacIntel,58.82352941,,,,46.27,46.769,3,0,3,0,1,,,,,,,,,,,,,,,,,,,
,,,,,,,,,,,728911,001,2024-02-19_13h27.48.122,corsi_blocks,2023.2.2,MacIntel,58.82352941,,,,46.77,47.27,4,0,4,0,1,,,,,,,,,,,,,,,,,,,
,,,,,,,,,,,728911,001,2024-02-19_13h27.48.122,corsi_blocks,2023.2.2,MacIntel,58.82352941,,,,47.27,47.771,5,0,5,0,1,,,,,,,,,,,,,,,,,,,
,,,,,,,,,,,728911,001,2024-02-19_13h27.48.122,corsi_blocks,2023.2.2,MacIntel,58.82352941,,,,47.771,48.274,6,0,6,0,1,,,,,,,,,,,,,,,,,,,
,,,,,,,,,,,728911,001,2024-02-19_13h27.48.122,corsi_blocks,2023.2.2,MacIntel,58.82352941,,,,,,,,,,,48.274,53.74,"[-0.24375,-0.485,-0.5975,0.0275,-0.36,-0.1675,0.04625,0.535]","[0.0375,-0.29125,0.04125,-0.05125,0.12375,0.4025,0.08375,-0.4025]","[1,1,1,1,1,1,1,1]","[0,0,0,0,0,0,0,0]","[0,0,0,0,0,0,0,0]","[0.9460000000000051,1.497000000000007,2.213000000000001,2.8130000000000024,3.3980000000000032,3.9810000000000016,4.697000000000003,5.464000000000006]","[""blk1"",""blk2"",""blk3"",""blk4"",""blk5"",""blk6"",""blk7""]","[1,1,1,1,1,1,1]",1,53.74,54.741,5,0,5,0,1,
,,,,,,,,,,,728911,001,2024-02-19_13h27.48.122,corsi_blocks,2023.2.2,MacIntel,58.82352941,54.741,"[[-0.55125,-0.13375],[0.28875,0.39875],[0.05875,-0.0575],[0.0675,0.07375],[-0.01125,-0.295],[-0.675,0.29875],[0.19375,-0.17125],[-0.26625,0.235],[-0.12125,-0.12625]]",55.24,55.241,55.74,0,0,0,0,1,,,,,,,,,,,,,,,,,,,
,,,,,,,,,,,728911,001,2024-02-19_13h27.48.122,corsi_blocks,2023.2.2,MacIntel,58.82352941,,,,55.741,56.24,1,0,1,0,1,,,,,,,,,,,,,,,,,,,
,,,,,,,,,,,728911,001,2024-02-19_13h27.48.122,corsi_blocks,2023.2.2,MacIntel,58.82352941,,,,56.241,56.741,2,0,2,0,1,,,,,,,,,,,,,,,,,,,
,,,,,,,,,,,728911,001,2024-02-19_13h27.48.122,corsi_blocks,2023.2.2,MacIntel,58.82352941,,,,56.741,57.241,3,0,3,0,1,,,,,,,,,,,,,,,,,,,
,,,,,,,,,,,728911,001,2024-02-19_13h27.48.122,corsi_blocks,2023.2.2,MacIntel,58.82352941,,,,57.241,57.742,4,0,4,0,1,,,,,,,,,,,,,,,,,,,
,,,,,,,,,,,728911,001,2024-02-19_13h27.48.122,corsi_blocks,2023.2.2,MacIntel,58.82352941,,,,57.742,58.241,5,0,5,0,1,,,,,,,,,,,,,,,,,,,
,,,,,,,,,,,728911,001,2024-02-19_13h27.48.122,corsi_blocks,2023.2.2,MacIntel,58.82352941,,,,58.242,58.741,6,0,6,0,1,,,,,,,,,,,,,,,,,,,
,,,,,,,,,,,728911,001,2024-02-19_13h27.48.122,corsi_blocks,2023.2.2,MacIntel,58.82352941,,,,58.742,59.243,7,0,7,0,1,,,,,,,,,,,,,,,,,,,
,,,,,,,,,,,728911,001,2024-02-19_13h27.48.122,corsi_blocks,2023.2.2,MacIntel,58.82352941,,,,,,,,,,,59.243,67.579,"[-0.59,0.2725,-0.02375,-0.07375,0.235,0.10875,0.0525,0.0525,-0.63625,-0.245,0.545]","[-0.13,0.38375,-0.26625,-0.155,-0.19875,-0.0575,-0.03875,0.09125,0.3225,0.23625,-0.40125]","[1,1,1,1,1,1,1,1,1,1,1]","[0,0,0,0,0,0,0,0,0,0,0]","[0,0,0,0,0,0,0,0,0,0,0]","[0.3830000000000098,1.2469999999999999,1.9150000000000063,2.3670000000000044,3.5859999999999985,4.134,4.535000000000025,4.948999999999998,5.667000000000002,7.369,8.334000000000003]","[""blk1"",""blk2"",""blk5"",""blk9"",""blk7"",""blk3"",""blk4"",""blk6"",""blk8""]","[1,1,0,0,0,0,0,0,0]",0,67.58,68.58,6,0,6,0,1,
,,,,,,,,,,,728911,001,2024-02-19_13h27.48.122,corsi_blocks,2023.2.2,MacIntel,58.82352941,68.58,"[[-0.12125,-0.12625],[0.19375,-0.17125],[0.54,0.03625],[0.25625,0.0975],[-0.55125,-0.13375],[-0.35125,0.36625],[-0.01875,0.235],[0.0675,0.07375],[-0.24625,0.04375]]",69.081,69.081,69.581,0,0,0,0,1,,,,,,,,,,,,,,,,,,,
,,,,,,,,,,,728911,001,2024-02-19_13h27.48.122,corsi_blocks,2023.2.2,MacIntel,58.82352941,,,,69.582,70.083,1,0,1,0,1,,,,,,,,,,,,,,,,,,,
,,,,,,,,,,,728911,001,2024-02-19_13h27.48.122,corsi_blocks,2023.2.2,MacIntel,58.82352941,,,,70.083,70.581,2,0,2,0,1,,,,,,,,,,,,,,,,,,,
,,,,,,,,,,,728911,001,2024-02-19_13h27.48.122,corsi_blocks,2023.2.2,MacIntel,58.82352941,,,,70.582,71.081,3,0,3,0,1,,,,,,,,,,,,,,,,,,,
,,,,,,,,,,,728911,001,2024-02-19_13h27.48.122,corsi_blocks,2023.2.2,MacIntel,58.82352941,,,,71.081,71.581,4,0,4,0,1,,,,,,,,,,,,,,,,,,,
,,,,,,,,,,,728911,001,2024-02-19_13h27.48.122,corsi_blocks,2023.2.2,MacIntel,58.82352941,,,,71.581,72.081,5,0,5,0,1,,,,,,,,,,,,,,,,,,,
,,,,,,,,,,,728911,001,2024-02-19_13h27.48.122,corsi_blocks,2023.2.2,MacIntel,58.82352941,,,,72.082,72.582,6,0,6,0,1,,,,,,,,,,,,,,,,,,,
,,,,,,,,,,,728911,001,2024-02-19_13h27.48.122,corsi_blocks,2023.2.2,MacIntel,58.82352941,,,,72.583,73.082,7,0,7,0,1,,,,,,,,,,,,,,,,,,,
,,,,,,,,,,,728911,001,2024-02-19_13h27.48.122,corsi_blocks,2023.2.2,MacIntel,58.82352941,,,,,,,,,,,73.082,81.37,"[0.205,0.525,0.29875,-0.57875,-0.36375,0.0675,0.535,-0.02625,-0.13625,-0.14625,0.49875]","[-0.14625,0.05375,0.06875,-0.12875,0.35125,0.0825,-0.49875,0.2275,-0.19,-0.095,-0.42625]","[1,1,1,1,1,1,1,1,1,1,1]","[0,0,0,0,0,0,0,0,0,0,0]","[0,0,0,0,0,0,0,0,0,0,0]","[0.7689999999999912,1.5159999999999911,1.9669999999999987,2.7009999999999934,3.299999999999997,3.852000000000004,4.617999999999995,5.400999999999996,7.052999999999997,7.435999999999993,8.286000000000001]","[""blk2"",""blk3"",""blk4"",""blk5"",""blk6"",""blk8"",""blk7"",""blk1""]","[0,0,0,0,0,0,1,0]",0,81.37,82.37,7,0,7,0,1,
,,,,,,,,,,,728911,001,2024-02-19_13h27.48.122,corsi_blocks,2023.2.2,MacIntel,58.82352941,82.371,"[[-0.285,-0.27125],[-0.0225,0.395],[0.4625,0.35875],[0.05875,-0.0575],[-0.3575,-0.05625],[-0.485,0.34625],[0.62875,-0.1825],[-0.4075,0.11875],[0.45375,0.175]]",82.87,82.871,83.372,0,0,0,0,1,,,,,,,,,,,,,,,,,,,
,,,,,,,,,,,728911,001,2024-02-19_13h27.48.122,corsi_blocks,2023.2.2,MacIntel,58.82352941,,,,83.372,83.872,1,0,1,0,1,,,,,,,,,,,,,,,,,,,
,,,,,,,,,,,728911,001,2024-02-19_13h27.48.122,corsi_blocks,2023.2.2,MacIntel,58.82352941,,,,83.872,84.371,2,0,2,0,1,,,,,,,,,,,,,,,,,,,
,,,,,,,,,,,728911,001,2024-02-19_13h27.48.122,corsi_blocks,2023.2.2,MacIntel,58.82352941,,,,84.372,84.871,3,0,3,0,1,,,,,,,,,,,,,,,,,,,
,,,,,,,,,,,728911,001,2024-02-19_13h27.48.122,corsi_blocks,2023.2.2,MacIntel,58.82352941,,,,84.871,85.371,4,0,4,0,1,,,,,,,,,,,,,,,,,,,
,,,,,,,,,,,728911,001,2024-02-19_13h27.48.122,corsi_blocks,2023.2.2,MacIntel,58.82352941,,,,85.371,85.873,5,0,5,0,1,,,,,,,,,,,,,,,,,,,
,,,,,,,,,,,728911,001,2024-02-19_13h27.48.122,corsi_blocks,2023.2.2,MacIntel,58.82352941,,,,85.873,86.372,6,0,6,0,1,,,,,,,,,,,,,,,,,,,
,,,,,,,,,,,728911,001,2024-02-19_13h27.48.122,corsi_blocks,2023.2.2,MacIntel,58.82352941,,,,86.373,86.872,7,0,7,0,1,,,,,,,,,,,,,,,,,,,
,,,,,,,,,,,728911,001,2024-02-19_13h27.48.122,corsi_blocks,2023.2.2,MacIntel,58.82352941,,,,,,,,,,,86.872,94.192,"[-0.2675,-0.01625,0.495,0.035,-0.41,-0.4475,0.645,-0.36375,-0.47625,0.52625]","[-0.2725,0.39125,0.35375,-0.0175,0.17375,0.1325,-0.165,-0.04125,0.35125,-0.3875]","[1,1,1,1,1,1,1,1,1,1]","[0,0,0,0,0,0,0,0,0,0]","[0,0,0,0,0,0,0,0,0,0]","[0.6670000000000016,1.4350000000000023,2.067999999999998,2.668999999999997,3.2009999999999934,3.9509999999999934,4.8019999999999925,5.352999999999994,6.069999999999993,7.319999999999993]","[""blk1"",""blk2"",""blk3"",""blk4"",""blk8"",""blk7"",""blk5"",""blk6""]","[1,1,1,1,0,0,0,0]",0,94.193,95.193,8,0,8,0,1,
,,,,,,,,,,,728911,001,2024-02-19_13h27.48.122,corsi_blocks,2023.2.2,MacIntel,58.82352941,,,,,,,,,,,,,,,,,,,,,,,,,,,,,95.196