instructions.started,instructions.stopped,key_resp.keys,key_resp.rt,key_resp.duration,mouse.x,mouse.y,mouse.leftButton,mouse.midButton,mouse.rightButton,mouse.time,participant,session,date,expName,psychopyVersion,OS,frameRate,ISI.started,positions,ISI.stopped,corsi_present.started,corsi_present.stopped,block_sequence.thisRepN,block_sequence.thisTrialN,block_sequence.thisN,block_sequence.thisIndex,block_sequence.ran,corsi_respond.started,corsi_respond.stopped,corsi_mouse.x,corsi_mouse.y,corsi_mouse.leftButton,corsi_mouse.midButton,corsi_mouse.rightButton,corsi_mouse.time,corsi_mouse.clicked_name,correct_list,corsi_correct,feedback.started,feedback.stopped,corsi_task.thisRepN,corsi_task.thisTrialN,corsi_task.thisN,corsi_task.thisIndex,corsi_task.ran
0.0001,4.2363,space,4.2189,,,,,,,,735620,001,2024-02-19_13h49.17.740,corsi_blocks,2023.2.2,MacIntel,120.4819277,,,,,,,,,,,,,,,,,,,,,,,,,,,,
,,,,,,,,,,,735620,001,2024-02-19_13h49.17.740,corsi_blocks,2023.2.2,MacIntel,120.4819277,4.2418,"[[-0.26625,0.235],[0.16625,0.3825],[-0.675,0.29875],[-0.45875,-0.3],[-0.68625,-0.225],[0.365,-0.27625],[0.0675,0.07375],[0.4125,-0.1325],[0.28875,0.39875]]",4.7432,4.7443,5.2424,0,0,0,0,1,,,,,,,,,,,,,,,,,,
,,,,,,,,,,,735620,001,2024-02-19_13h49.17.740,corsi_blocks,2023.2.2,MacIntel,120.4819277,,,,5.2427,5.7433,1,0,1,0,1,,,,,,,,,,,,,,,,,,
,,,,,,,,,,,735620,001,2024-02-19_13h49.17.740,corsi_blocks,2023.2.2,MacIntel,120.4819277,,,,5.7438,6.2429,2,0,2,0,1,,,,,,,,,,,,,,,,,,
,,,,,,,,,,,735620,001,2024-02-19_13h49.17.740,corsi_blocks,2023.2.2,MacIntel,120.4819277,,,,,,,,,,,6.2431,9.9187,"[-0.24797867063492063,0.13990162037037038,-0.6465773809523809,0.4693245701058201]","[0.26220238095238096,0.3856936177248677,0.29305968915343916,-0.38137400793650794]","[1,1,1,1]","[0,0,0,0]","[0,0,0,0]","[1.3571999999880795,2.0404000000357634,2.7084000000357626,3.674600000023842]","[""blk1"",""blk2"",""blk3""]","[1,1,1]",1,9.9192,10.9178,0,0,0,0,1
,,,,,,,,,,,735620,001,2024-02-19_13h49.17.740,corsi_blocks,2023.2.2,MacIntel,120.4819277,10.9186,"[[-0.3575,-0.05625],[0.25625,0.0975],[-0.12125,-0.12625],[-0.285,-0.27125],[0.03125,-0.41],[-0.18625,0.41125],[-0.68625,-0.225],[-0.35125,0.36625],[0.62875,-0.1825]]",11.4187,11.4196,11.9191,0,0,0,0,1,,,,,,,,,,,,,,,,,,
,,,,,,,,,,,735620,001,2024-02-19_13h49.17.740,corsi_blocks,2023.2.2,MacIntel,120.4819277,,,,11.9197,12.4173,1,0,1,0,1,,,,,,,,,,,,,,,,,,
,,,,,,,,,,,735620,001,2024-02-19_13h49.17.740,corsi_blocks,2023.2.2,MacIntel,120.4819277,,,,12.4177,12.9181,2,0,2,0,1,,,,,,,,,,,,,,,,,,
,,,,,,,,,,,735620,001,2024-02-19_13h49.17.740,corsi_blocks,2023.2.2,MacIntel,120.4819277,,,,12.9185,13.4187,3,0,3,0,1,,,,,,,,,,,,,,,,,,
,,,,,,,,,,,735620,001,2024-02-19_13h49.17.740,corsi_blocks,2023.2.2,MacIntel,120.4819277,,,,,,,,,,,13.4188,19.4177,"[-0.34070767195767193,0.26709242724867727,-0.08061755952380953,-0.23625578703703703,0.48577628968253966,0.48487929894179893]","[-0.04152612433862434,0.12059358465608466,-0.12827794312169313,-0.23507357804232804,-0.371854332010582,-0.398755787037037]","[1,1,1,1,1,1]","[0,0,0,0,0,0]","[0,0,0,0,0,0]","[1.581999999999999,3.1069999999999975,3.757300000011922,4.2490000000000006,5.082099999964237,5.997899999976157]","[""blk1"",""blk2"",""blk3"",""blk4""]","[1,1,1,1]",1,19.4181,20.4185,1,0,1,0,1
,,,,,,,,,,,735620,001,2024-02-19_13h49.17.740,corsi_blocks,2023.2.2,MacIntel,120.4819277,20.4189,"[[-0.35125,0.36625],[0.16625,0.3825],[-0.675,0.29875],[-0.6025,0.0725],[0.30125,-0.0175],[-0.45875,-0.3],[-0.0225,0.395],[0.6375,0.27375],[0.28875,0.39875]]",20.9186,20.9195,21.4185,0,0,0,0,1,,,,,,,,,,,,,,,,,,
,,,,,,,,,,,735620,001,2024-02-19_13h49.17.740,corsi_blocks,2023.2.2,MacIntel,120.4819277,,,,21.4189,21.9187,1,0,1,0,1,,,,,,,,,,,,,,,,,,
,,,,,,,,,,,735620,001,2024-02-19_13h49.17.740,corsi_blocks,2023.2.2,MacIntel,120.4819277,,,,21.9192,22.4182,2,0,2,0,1,,,,,,,,,,,,,,,,,,
,,,,,,,,,,,735620,001,2024-02-19_13h49.17.740,corsi_blocks,2023.2.2,MacIntel,120.4819277,,,,22.4185,22.9186,3,0,3,0,1,,,,,,,,,,,,,,,,,,
,,,,,,,,,,,735620,001,2024-02-19_13h49.17.740,corsi_blocks,2023.2.2,MacIntel,120.4819277,,,,22.919,23.4187,4,0,4,0,1,,,,,,,,,,,,,,,,,,
,,,,,,,,,,,735620,001,2024-02-19_13h49.17.740,corsi_blocks,2023.2.2,MacIntel,120.4819277,,,,,,,,,,,23.4188,28.0356,"[-0.32873677248677247,0.17340443121693122,-0.6755166997354497,-0.619572585978836,0.2971519510582011,0.4744212962962963]","[0.33094824735449735,0.3855820105820106,0.3015294312169312,0.07758349867724867,-0.0591765873015873,-0.3963169642857143]","[1,1,1,1,1,1]","[0,0,0,0,0,0]","[0,0,0,0,0,0]","[1.248599999964238,1.8900000000000006,2.6071999999880795,3.2230000000000025,3.957300000011923,4.615899999976158]","[""blk1"",""blk2"",""blk3"",""blk4"",""blk5""]","[1,1,1,1,1]",1,28.0359,29.0344,2,0,2,0,1
,,,,,,,,,,,735620,001,2024-02-19_13h49.17.740,corsi_blocks,2023.2.2,MacIntel,120.4819277,29.0348,"[[-0.485,0.34625],[-0.55125,-0.13375],[0.4125,-0.1325],[-0.285,-0.27125],[0.19375,-0.17125],[-0.26625,0.235],[0.28875,0.39875],[0.6375,0.27375],[-0.68625,-0.225]]",29.5354,29.5364,30.0353,0,0,0,0,1,,,,,,,,,,,,,,,,,,
,,,,,,,,,,,735620,001,2024-02-19_13h49.17.740,corsi_blocks,2023.2.2,MacIntel,120.4819277,,,,30.0356,30.5353,1,0,1,0,1,,,,,,,,,,,,,,,,,,
,,,,,,,,,,,735620,001,2024-02-19_13h49.17.740,corsi_blocks,2023.2.2,MacIntel,120.4819277,,,,30.5357,31.0348,2,0,2,0,1,,,,,,,,,,,,,,,,,,
,,,,,,,,,,,735620,001,2024-02-19_13h49.17.740,corsi_blocks,2023.2.2,MacIntel,120.4819277,,,,31.0355,31.5344,3,0,3,0,1,,,,,,,,,,,,,,,,,,
,,,,,,,,,,,735620,001,2024-02-19_13h49.17.740,corsi_blocks,2023.2.2,MacIntel,120.4819277,,,,31.535,32.0364,4,0,4,0,1,,,,,,,,,,,,,,,,,,
,,,,,,,,,,,735620,001,2024-02-19_13h49.17.740,corsi_blocks,2023.2.2,MacIntel,120.4819277,,,,32.0369,32.535,5,0,5,0,1,,,,,,,,,,,,,,,,,,
,,,,,,,,,,,735620,001,2024-02-19_13h49.17.740,corsi_blocks,2023.2.2,MacIntel,120.4819277,,,,,,,,,,,32.5352,39.7855,"[-0.4465319113756614,-0.5334242724867725,-0.5351934523809524,0.3984416335978836,0.18768601190476192,-0.24418402777777778,-0.2802166005291005,-0.23592096560846562,0.4444113756613757]","[0.3650876322751323,-0.05821759259259259,-0.11403356481481482,-0.12347883597883598,-0.18136987433862434,0.1919766865079365,0.23732638888888888,-0.25407986111111114,-0.37392113095238094]","[1,1,1,1,1,1,1,1,1]","[0,0,0,0,0,0,0,0,0]","[0,0,0,0,0,0,0,0,0]","[0.6075000000000017,1.1403000000119192,1.5738000000119214,2.3653000000119206,2.857199999988076,3.7896999999880805,5.231699999988081,6.415699999988078,7.249399999976156]","[""blk1"",""blk2"",""blk3"",""blk5"",""blk6"",""blk6"",""blk4""]","[1,1,1,0,0,0]",0,39.786,40.7857,3,0,3,0,1
,,,,,,,,,,,735620,001,2024-02-19_13h49.17.740,corsi_blocks,2023.2.2,MacIntel,120.4819277,40.7862,"[[-0.68625,-0.225],[-0.12125,-0.12625],[-0.01125,-0.295],[0.19375,-0.17125],[0.0675,0.07375],[-0.35125,0.36625],[0.30125,-0.0175],[0.03125,-0.41],[0.25625,0.0975]]",41.2847,41.286,41.785,0,0,0,0,1,,,,,,,,,,,,,,,,,,
,,,,,,,,,,,735620,001,2024-02-19_13h49.17.740,corsi_blocks,2023.2.2,MacIntel,120.4819277,,,,41.7856,42.285,1,0,1,0,1,,,,,,,,,,,,,,,,,,
,,,,,,,,,,,735620,001,2024-02-19_13h49.17.740,corsi_blocks,2023.2.2,MacIntel,120.4819277,,,,42.2855,42.7848,2,0,2,0,1,,,,,,,,,,,,,,,,,,
,,,,,,,,,,,735620,001,2024-02-19_13h49.17.740,corsi_blocks,2023.2.2,MacIntel,120.4819277,,,,42.7854,43.2849,3,0,3,0,1,,,,,,,,,,,,,,,,,,
,,,,,,,,,,,735620,001,2024-02-19_13h49.17.740,corsi_blocks,2023.2.2,MacIntel,120.4819277,,,,43.2855,43.7844,4,0,4,0,1,,,,,,,,,,,,,,,,,,
,,,,,,,,,,,735620,001,2024-02-19_13h49.17.740,corsi_blocks,2023.2.2,MacIntel,120.4819277,,,,43.7849,44.2855,5,0,5,0,1,,,,,,,,,,,,,,,,,,
,,,,,,,,,,,735620,001,2024-02-19_13h49.17.740,corsi_blocks,2023.2.2,MacIntel,120.4819277,,,,,,,,,,,44.2857,50.0852,"[-0.678844246031746,-0.10793650793650794,-0.04842096560846561,0.1380869708994709,0.17322255291005292,0.07640542328042328,-0.37670717592592595,0.5231770833333333]","[-0.23697089947089947,-0.13203125,-0.2568989748677249,-0.13426752645502646,-0.13717344576719576,0.0722470238095238,0.40500992063492064,-0.3819816468253968]","[1,1,1,1,1,1,1,1]","[0,0,0,0,0,0,0,0]","[0,0,0,0,0,0,0,0]","[1.3398000000119197,1.9818000000119227,2.4139000000357598,2.889800000011917,3.3477000000476806,3.8308000000119193,4.564999999999998,5.7984000000357625]","[""blk1"",""blk2"",""blk3"",""blk4"",""blk5"",""blk6""]","[1,1,1,1,1,1]",1,50.0855,51.0851,4,0,4,0,1
,,,,,,,,,,,735620,001,2024-02-19_13h49.17.740,corsi_blocks,2023.2.2,MacIntel,120.4819277,51.0859,"[[-0.01125,-0.295],[-0.16125,-0.28],[-0.09875,0.065],[0.19375,-0.17125],[-0.18625,0.41125],[-0.3575,-0.05625],[-0.675,0.29875],[0.22,0.2425],[-0.485,0.34625]]",51.5843,51.5855,52.0846,0,0,0,0,1,,,,,,,,,,,,,,,,,,
,,,,,,,,,,,735620,001,2024-02-19_13h49.17.740,corsi_blocks,2023.2.2,MacIntel,120.4819277,,,,52.0849,52.5856,1,0,1,0,1,,,,,,,,,,,,,,,,,,
,,,,,,,,,,,735620,001,2024-02-19_13h49.17.740,corsi_blocks,2023.2.2,MacIntel,120.4819277,,,,52.5859,53.0856,2,0,2,0,1,,,,,,,,,,,,,,,,,,
,,,,,,,,,,,735620,001,2024-02-19_13h49.17.740,corsi_blocks,2023.2.2,MacIntel,120.4819277,,,,53.0861,53.5852,3,0,3,0,1,,,,,,,,,,,,,,,,,,
,,,,,,,,,,,735620,001,2024-02-19_13h49.17.740,corsi_blocks,2023.2.2,MacIntel,120.4819277,,,,53.5855,54.0845,4,0,4,0,1,,,,,,,,,,,,,,,,,,
,,,,,,,,,,,735620,001,2024-02-19_13h49.17.740,corsi_blocks,2023.2.2,MacIntel,120.4819277,,,,54.0848,54.5853,5,0,5,0,1,,,,,,,,,,,,,,,,,,
,,,,,,,,,,,735620,001,2024-02-19_13h49.17.740,corsi_blocks,2023.2.2,MacIntel,120.4819277,,,,54.5858,55.0844,6,0,6,0,1,,,,,,,,,,,,,,,,,,
,,,,,,,,,,,735620,001,2024-02-19_13h49.17.740,corsi_blocks,2023.2.2,MacIntel,120.4819277,,,,,,,,,,,55.0846,59.5028,"[-0.01795221560846561,-0.14893766534391534,-0.1287161044973545,0.20765542328042327,-0.1767609126984127,-0.655150462962963,-0.3390583664021164,0.46338872354497357]","[-0.3199156746031746,-0.28797949735449735,0.05843667328042328,-0.19196841931216932,0.37786871693121693,0.3037119708994709,-0.05808531746031746,-0.3860449735449735]","[1,1,1,1,1,1,1,1]","[0,0,0,0,0,0,0,0]","[0,0,0,0,0,0,0,0]","[0.6749999999999972,0.9739999999999966,1.6652000000476832,2.016400000035766,2.591100000023843,3.132900000035761,3.649800000011922,4.417000000000002]","[""blk1"",""blk2"",""blk3"",""blk4"",""blk5"",""blk7"",""blk6""]","[1,1,1,1,1,0,0]",0,59.5031,60.5013,5,0,5,0,1
,,,,,,,,,,,735620,001,2024-02-19_13h49.17.740,corsi_blocks,2023.2.2,MacIntel,120.4819277,60.5017,"[[0.22,0.2425],[-0.24625,0.04375],[0.03125,-0.41],[-0.26625,0.235],[-0.18625,0.41125],[-0.485,0.34625],[0.30125,-0.0175],[-0.0225,0.395],[-0.12125,-0.12625]]",61.0011,61.0023,61.5017,0,0,0,0,1,,,,,,,,,,,,,,,,,,
,,,,,,,,,,,735620,001,2024-02-19_13h49.17.740,corsi_blocks,2023.2.2,MacIntel,120.4819277,,,,61.5021,62.0006,1,0,1,0,1,,,,,,,,,,,,,,,,,,
,,,,,,,,,,,735620,001,2024-02-19_13h49.17.740,corsi_blocks,2023.2.2,MacIntel,120.4819277,,,,62.001,62.5009,2,0,2,0,1,,,,,,,,,,,,,,,,,,
,,,,,,,,,,,735620,001,2024-02-19_13h49.17.740,corsi_blocks,2023.2.2,MacIntel,120.4819277,,,,62.5012,63.0015,3,0,3,0,1,,,,,,,,,,,,,,,,,,
,,,,,,,,,,,735620,001,2024-02-19_13h49.17.740,corsi_blocks,2023.2.2,MacIntel,120.4819277,,,,63.002,63.5018,4,0,4,0,1,,,,,,,,,,,,,,,,,,
,,,,,,,,,,,735620,001,2024-02-19_13h49.17.740,corsi_blocks,2023.2.2,MacIntel,120.4819277,,,,63.5022,64.0015,5,0,5,0,1,,,,,,,,,,,,,,,,,,
,,,,,,,,,,,735620,001,2024-02-19_13h49.17.740,corsi_blocks,2023.2.2,MacIntel,120.4819277,,,,64.0024,64.5016,6,0,6,0,1,,,,,,,,,,,,,,,,,,
,,,,,,,,,,,735620,001,2024-02-19_13h49.17.740,corsi_blocks,2023.2.2,MacIntel,120.4819277,,,,,,,,,,,64.5017,72.3008,"[0.2547040343915344,-0.20734126984126985,-0.21112351190476192,-0.2557250330687831,-0.2500330687830688,-0.15973048941798942,0.023792989417989418,-0.4915509259259259,-0.19911127645502646,0.25496858465608463,0.4680803571428571,0.4680803571428571]","[0.2587260251322751,0.21518270502645503,0.24871031746031746,0.20088458994708994,0.0568287037037037,-0.07170138888888888,-0.3949280753968254,0.3624090608465608,0.4193039021164021,-0.034164186507936505,-0.3312045304232804,-0.4081803902116402]","[1,1,1,1,1,1,1,1,1,1,1,1]","[0,0,0,0,0,0,0,0,0,0,0,0]","[0,0,0,0,0,0,0,0,0,0,0,0]","[0.8065999999642344,1.458199999988068,2.0666999999880744,2.5580999999642273,2.941099999964237,3.4324999999999903,4.366799999952306,5.165599999964229,5.732199999988069,6.773899999976152,7.4900999999642295,7.798399999976155]","[""blk1"",""blk4"",""blk2"",""blk3"",""blk6"",""blk5"",""blk7""]","[1,0,0,0,0,1,0,0]",0,72.3013,73.3004,6,0,6,0,1
,,,,,,,,,,,735620,001,2024-02-19_13h49.17.740,corsi_blocks,2023.2.2,MacIntel,120.4819277,73.3008,"[[-0.55125,-0.13375],[0.30125,-0.0175],[-0.12125,-0.12625],[0.19375,-0.17125],[0.57875,-0.31375],[-0.68625,-0.225],[0.25625,0.0975],[-0.01875,0.235],[0.4125,-0.1325]]",73.801,73.8016,74.3023,0,0,0,0,1,,,,,,,,,,,,,,,,,,
,,,,,,,,,,,735620,001,2024-02-19_13h49.17.740,corsi_blocks,2023.2.2,MacIntel,120.4819277,,,,74.3025,74.801,1,0,1,0,1,,,,,,,,,,,,,,,,,,
,,,,,,,,,,,735620,001,2024-02-19_13h49.17.740,corsi_blocks,2023.2.2,MacIntel,120.4819277,,,,74.8012,75.3016,2,0,2,0,1,,,,,,,,,,,,,,,,,,
,,,,,,,,,,,735620,001,2024-02-19_13h49.17.740,corsi_blocks,2023.2.2,MacIntel,120.4819277,,,,75.3019,75.8017,3,0,3,0,1,,,,,,,,,,,,,,,,,,
,,,,,,,,,,,735620,001,2024-02-19_13h49.17.740,corsi_blocks,2023.2.2,MacIntel,120.4819277,,,,75.802,76.301,4,0,4,0,1,,,,,,,,,,,,,,,,,,
,,,,,,,,,,,735620,001,2024-02-19_13h49.17.740,corsi_blocks,2023.2.2,MacIntel,120.4819277,,,,76.3013,77.9199,5,0,5,0,1,,,,,,,,,,,,,,,,,,
,,,,,,,,,,,735620,001,2024-02-19_13h49.17.740,corsi_blocks,2023.2.2,MacIntel,120.4819277,,,,77.9201,77.9204,6,0,6,0,1,,,,,,,,,,,,,,,,,,