instructions.started,instructions.stopped,key_resp.keys,key_resp.rt,key_resp.duration,mouse.x,mouse.y,mouse.leftButton,mouse.midButton,mouse.rightButton,mouse.time,participant,session,date,expName,psychopyVersion,OS,frameRate,ISI.started,positions,ISI.stopped,corsi_present.started,corsi_present.stopped,block_sequence.thisRepN,block_sequence.thisTrialN,block_sequence.thisN,block_sequence.thisIndex,block_sequence.ran,corsi_respond.started,corsi_respond.stopped,corsi_mouse.x,corsi_mouse.y,corsi_mouse.leftButton,corsi_mouse.midButton,corsi_mouse.rightButton,corsi_mouse.time,corsi_mouse.clicked_name,correct_list,corsi_correct,feedback.started,feedback.stopped,corsi_task.thisRepN,corsi_task.thisTrialN,corsi_task.thisN,corsi_task.thisIndex,corsi_task.ran
0.0004,13.8759,space,13.8564,,,,,,,,802588,001,2024-02-19_14h43.41.272,corsi_blocks,2023.2.2,MacIntel,63.29113924,,,,,,,,,,,,,,,,,,,,,,,,,,,,
,,,,,,,,,,,802588,001,2024-02-19_14h43.41.272,corsi_blocks,2023.2.2,MacIntel,63.29113924,13.8914,"[[0.45375,0.175],[-0.3575,-0.05625],[0.365,-0.27625],[-0.4075,0.11875],[0.1925,-0.295],[-0.55125,-0.13375],[0.4625,0.35875],[-0.35125,0.36625],[-0.09875,0.065]]",14.378,14.3798,14.8785,0,0,0,0,1,,,,,,,,,,,,,,,,,,
,,,,,,,,,,,802588,001,2024-02-19_14h43.41.272,corsi_blocks,2023.2.2,MacIntel,63.29113924,,,,14.8793,15.3778,1,0,1,0,1,,,,,,,,,,,,,,,,,,
,,,,,,,,,,,802588,001,2024-02-19_14h43.41.272,corsi_blocks,2023.2.2,MacIntel,63.29113924,,,,15.3784,15.8778,2,0,2,0,1,,,,,,,,,,,,,,,,,,
,,,,,,,,,,,802588,001,2024-02-19_14h43.41.272,corsi_blocks,2023.2.2,MacIntel,63.29113924,,,,,,,,,,,15.8783,21.7473,"[-0.3339071316189236,0.392022705078125,0.44953016493055553,0.466422119140625]","[-0.07853603786892362,-0.2759870062934028,0.15116492377387153,-0.41454630533854164]","[1,1,1,1]","[0,0,0,0]","[0,0,0,0]","[2.8496999999955293,3.696899999998511,4.348099999994041,5.864799999997018]","[""blk2"",""blk3"",""blk1""]","[0,0,0]",0,21.7482,22.7475,0,0,0,0,1
,,,,,,,,,,,802588,001,2024-02-19_14h43.41.272,corsi_blocks,2023.2.2,MacIntel,63.29113924,22.748,"[[0.4125,-0.1325],[-0.675,0.29875],[-0.485,0.34625],[-0.26625,0.235],[-0.55125,-0.13375],[0.1925,-0.295],[0.4625,0.35875],[0.25625,0.0975],[-0.01875,0.235]]",23.245,23.2463,23.7446,0,0,0,0,1,,,,,,,,,,,,,,,,,,
,,,,,,,,,,,802588,001,2024-02-19_14h43.41.272,corsi_blocks,2023.2.2,MacIntel,63.29113924,,,,23.7454,24.2446,1,0,1,0,1,,,,,,,,,,,,,,,,,,
,,,,,,,,,,,802588,001,2024-02-19_14h43.41.272,corsi_blocks,2023.2.2,MacIntel,63.29113924,,,,24.2451,24.746,2,0,2,0,1,,,,,,,,,,,,,,,,,,
,,,,,,,,,,,802588,001,2024-02-19_14h43.41.272,corsi_blocks,2023.2.2,MacIntel,63.29113924,,,,,,,,,,,24.7463,27.8465,"[0.3904918077256944,-0.6938791232638889,-0.4417363145616319,0.4413519965277778]","[-0.15821824815538194,0.2733651902940538,0.34337673611111114,-0.40121561686197915]","[1,1,1,1]","[0,0,0,0]","[0,0,0,0]","[0.8641999999955274,1.5638999999985082,2.0474999999999994,3.0988999999985047]","[""blk1"",""blk2"",""blk3""]","[1,1,1]",1,27.8468,28.8442,1,0,1,0,1
,,,,,,,,,,,802588,001,2024-02-19_14h43.41.272,corsi_blocks,2023.2.2,MacIntel,63.29113924,28.8445,"[[-0.12125,-0.12625],[-0.24625,0.04375],[0.1925,-0.295],[-0.68625,-0.225],[-0.26625,0.235],[0.16625,0.3825],[0.03125,-0.41],[-0.0225,0.395],[-0.01125,-0.295]]",29.3447,29.3456,29.8446,0,0,0,0,1,,,,,,,,,,,,,,,,,,
,,,,,,,,,,,802588,001,2024-02-19_14h43.41.272,corsi_blocks,2023.2.2,MacIntel,63.29113924,,,,29.845,30.3446,1,0,1,0,1,,,,,,,,,,,,,,,,,,
,,,,,,,,,,,802588,001,2024-02-19_14h43.41.272,corsi_blocks,2023.2.2,MacIntel,63.29113924,,,,30.345,30.8458,2,0,2,0,1,,,,,,,,,,,,,,,,,,
,,,,,,,,,,,802588,001,2024-02-19_14h43.41.272,corsi_blocks,2023.2.2,MacIntel,63.29113924,,,,30.8462,31.3446,3,0,3,0,1,,,,,,,,,,,,,,,,,,
,,,,,,,,,,,802588,001,2024-02-19_14h43.41.272,corsi_blocks,2023.2.2,MacIntel,63.29113924,,,,,,,,,,,31.3447,35.9615,"[-0.11545850965711806,-0.22874403211805555,0.19103759765625,-0.6664471096462674,0.44744167751736114,0.4510706922743056]","[-0.12868787977430557,0.02039859347873264,-0.2654908582899306,-0.23102681477864584,-0.3660622829861111,-0.41405015733506945]","[1,1,1,1,1,1]","[0,0,0,0,0,0]","[0,0,0,0,0,0]","[0.38239999999851193,0.8322000000029774,1.4491000000014864,2.031899999998508,3.3152999999970163,4.615700000002981]","[""blk1"",""blk2"",""blk3"",""blk4""]","[1,1,1,1]",1,35.9618,36.9607,2,0,2,0,1
,,,,,,,,,,,802588,001,2024-02-19_14h43.41.272,corsi_blocks,2023.2.2,MacIntel,63.29113924,36.9613,"[[0.19375,-0.17125],[-0.26625,0.235],[0.4625,0.35875],[0.03125,-0.41],[-0.45875,-0.3],[-0.3575,-0.05625],[-0.4075,0.11875],[0.45375,0.175],[-0.09875,0.065]]",37.4606,37.4616,37.9607,0,0,0,0,1,,,,,,,,,,,,,,,,,,
,,,,,,,,,,,802588,001,2024-02-19_14h43.41.272,corsi_blocks,2023.2.2,MacIntel,63.29113924,,,,37.9611,38.461,1,0,1,0,1,,,,,,,,,,,,,,,,,,
,,,,,,,,,,,802588,001,2024-02-19_14h43.41.272,corsi_blocks,2023.2.2,MacIntel,63.29113924,,,,38.4616,38.9613,2,0,2,0,1,,,,,,,,,,,,,,,,,,
,,,,,,,,,,,802588,001,2024-02-19_14h43.41.272,corsi_blocks,2023.2.2,MacIntel,63.29113924,,,,38.9619,39.4617,3,0,3,0,1,,,,,,,,,,,,,,,,,,
,,,,,,,,,,,802588,001,2024-02-19_14h43.41.272,corsi_blocks,2023.2.2,MacIntel,63.29113924,,,,39.462,39.9609,4,0,4,0,1,,,,,,,,,,,,,,,,,,
,,,,,,,,,,,802588,001,2024-02-19_14h43.41.272,corsi_blocks,2023.2.2,MacIntel,63.29113924,,,,,,,,,,,39.961,54.6449,"[0.20762953016493055,-0.2824972195095486,0.45749755859375,0.023975084092881946,-0.4928897433810764,0.41841905381944444,0.434656982421875]","[-0.1814398193359375,0.2298633999294705,0.33207199096679685,-0.38293538411458333,-0.28964918348524304,-0.3717139350043403,-0.3924188232421875]","[1,1,1,1,1,1,1]","[0,0,0,0,0,0,0]","[0,0,0,0,0,0,0]","[0.38210000000148625,0.9657999999970173,1.5986999999955316,2.265699999995526,3.1656999999955246,5.0656000000014885,14.682199999995525]","[""blk1"",""blk2"",""blk3"",""blk4"",""blk5""]","[1,1,1,1,1]",1,54.6456,55.6442,3,0,3,0,1
,,,,,,,,,,,802588,001,2024-02-19_14h43.41.272,corsi_blocks,2023.2.2,MacIntel,63.29113924,55.6451,"[[0.365,-0.27625],[0.4625,0.35875],[0.30125,-0.0175],[-0.26625,0.235],[-0.675,0.29875],[-0.3575,-0.05625],[-0.0225,0.395],[-0.01875,0.235],[0.45375,0.175]]",56.1436,56.1447,56.6437,0,0,0,0,1,,,,,,,,,,,,,,,,,,
,,,,,,,,,,,802588,001,2024-02-19_14h43.41.272,corsi_blocks,2023.2.2,MacIntel,63.29113924,,,,56.6442,57.1332,1,0,1,0,1,,,,,,,,,,,,,,,,,,
,,,,,,,,,,,802588,001,2024-02-19_14h43.41.272,corsi_blocks,2023.2.2,MacIntel,63.29113924,,,,57.1357,57.6271,2,0,2,0,1,,,,,,,,,,,,,,,,,,
,,,,,,,,,,,802588,001,2024-02-19_14h43.41.272,corsi_blocks,2023.2.2,MacIntel,63.29113924,,,,57.6276,58.1272,3,0,3,0,1,,,,,,,,,,,,,,,,,,
,,,,,,,,,,,802588,001,2024-02-19_14h43.41.272,corsi_blocks,2023.2.2,MacIntel,63.29113924,,,,58.1279,58.6275,4,0,4,0,1,,,,,,,,,,,,,,,,,,
,,,,,,,,,,,802588,001,2024-02-19_14h43.41.272,corsi_blocks,2023.2.2,MacIntel,63.29113924,,,,58.6279,59.1271,5,0,5,0,1,,,,,,,,,,,,,,,,,,
,,,,,,,,,,,802588,001,2024-02-19_14h43.41.272,corsi_blocks,2023.2.2,MacIntel,63.29113924,,,,,,,,,,,59.1273,66.4452,"[0.2640435791015625,-0.26843512641059025,-0.6463946702745226,-0.3469948323567708,-0.013631998697916667,-0.011499159071180556,0.4111090766059028]","[-0.03115756564670139,0.19364990234375,0.27451605902777776,-0.08776685926649305,0.37912299262152777,0.38682569715711806,-0.40242838541666665]","[1,1,1,1,1,1,1]","[0,0,0,0,0,0,0]","[0,0,0,0,0,0,0]","[0.5656000000014885,1.1321000000015005,1.731899999998518,2.231700000002988,4.649200000002992,5.667600000001499,7.316299999997028]","[""blk3"",""blk4"",""blk5"",""blk6"",""blk7"",""blk7""]","[0,0,0,0,0]",0,66.4457,67.4441,4,0,4,0,1
,,,,,,,,,,,802588,001,2024-02-19_14h43.41.272,corsi_blocks,2023.2.2,MacIntel,63.29113924,67.4445,"[[0.19375,-0.17125],[-0.24625,0.04375],[0.16625,0.3825],[0.365,-0.27625],[0.30125,-0.0175],[0.22,0.2425],[0.6375,0.27375],[0.57875,-0.31375],[0.62875,-0.1825]]",67.9441,67.9456,68.4445,0,0,0,0,1,,,,,,,,,,,,,,,,,,
,,,,,,,,,,,802588,001,2024-02-19_14h43.41.272,corsi_blocks,2023.2.2,MacIntel,63.29113924,,,,68.445,68.9443,1,0,1,0,1,,,,,,,,,,,,,,,,,,
,,,,,,,,,,,802588,001,2024-02-19_14h43.41.272,corsi_blocks,2023.2.2,MacIntel,63.29113924,,,,68.9447,69.4442,2,0,2,0,1,,,,,,,,,,,,,,,,,,
,,,,,,,,,,,802588,001,2024-02-19_14h43.41.272,corsi_blocks,2023.2.2,MacIntel,63.29113924,,,,69.4448,69.9457,3,0,3,0,1,,,,,,,,,,,,,,,,,,
,,,,,,,,,,,802588,001,2024-02-19_14h43.41.272,corsi_blocks,2023.2.2,MacIntel,63.29113924,,,,69.946,70.4444,4,0,4,0,1,,,,,,,,,,,,,,,,,,
,,,,,,,,,,,802588,001,2024-02-19_14h43.41.272,corsi_blocks,2023.2.2,MacIntel,63.29113924,,,,70.4448,70.9439,5,0,5,0,1,,,,,,,,,,,,,,,,,,
,,,,,,,,,,,802588,001,2024-02-19_14h43.41.272,corsi_blocks,2023.2.2,MacIntel,63.29113924,,,,,,,,,,,70.9441,78.3775,"[0.23033935546875,-0.2571038818359375,0.14793585883246527,0.3187673611111111,0.3187673611111111,0.24111836751302082,0.48769097222222224,0.4802004665798611,0.468031005859375,0.5159228515625]","[-0.17075703938802084,0.06759677463107638,0.3496963840060764,-0.25635226779513887,-0.012952406141493055,0.2069934760199653,-0.31813944498697916,-0.36419101291232636,-0.42928602430555557,-0.39018954806857636]","[1,1,1,1,1,1,1,1,1,1]","[0,0,0,0,0,0,0,0,0,0]","[0,0,0,0,0,0,0,0,0,0]","[0.9992999999970209,1.5808999999985076,2.2482999999970303,3.181299999997023,3.6145000000000067,4.149100000001496,4.9976999999955325,5.4151000000014875,6.314799999997021,7.430699999995539]","[""blk1"",""blk2"",""blk3"",""blk4"",""blk5"",""blk6""]","[1,1,1,1,1,1]",1,78.378,79.3776,5,0,5,0,1
,,,,,,,,,,,802588,001,2024-02-19_14h43.41.272,corsi_blocks,2023.2.2,MacIntel,63.29113924,79.378,"[[-0.26625,0.235],[0.0675,0.07375],[0.28875,0.39875],[0.03125,-0.41],[0.30125,-0.0175],[0.16625,0.3825],[0.6375,0.27375],[-0.485,0.34625],[-0.0225,0.395]]",79.8768,79.8786,80.3796,0,0,0,0,1,,,,,,,,,,,,,,,,,,
,,,,,,,,,,,802588,001,2024-02-19_14h43.41.272,corsi_blocks,2023.2.2,MacIntel,63.29113924,,,,80.3799,80.8771,1,0,1,0,1,,,,,,,,,,,,,,,,,,
,,,,,,,,,,,802588,001,2024-02-19_14h43.41.272,corsi_blocks,2023.2.2,MacIntel,63.29113924,,,,80.8777,81.3776,2,0,2,0,1,,,,,,,,,,,,,,,,,,
,,,,,,,,,,,802588,001,2024-02-19_14h43.41.272,corsi_blocks,2023.2.2,MacIntel,63.29113924,,,,81.378,81.8769,3,0,3,0,1,,,,,,,,,,,,,,,,,,
,,,,,,,,,,,802588,001,2024-02-19_14h43.41.272,corsi_blocks,2023.2.2,MacIntel,63.29113924,,,,81.8774,82.3774,4,0,4,0,1,,,,,,,,,,,,,,,,,,
,,,,,,,,,,,802588,001,2024-02-19_14h43.41.272,corsi_blocks,2023.2.2,MacIntel,63.29113924,,,,82.3781,82.8766,5,0,5,0,1,,,,,,,,,,,,,,,,,,
,,,,,,,,,,,802588,001,2024-02-19_14h43.41.272,corsi_blocks,2023.2.2,MacIntel,63.29113924,,,,82.877,83.3777,6,0,6,0,1,,,,,,,,,,,,,,,,,,
,,,,,,,,,,,802588,001,2024-02-19_14h43.41.272,corsi_blocks,2023.2.2,MacIntel,63.29113924,,,,,,,,,,,83.3778,91.8946,"[-0.2579198540581597,0.08992458767361111,0.24950751410590277,0.04381903754340278,0.04381903754340278,0.2818467881944444,0.09843214246961805,0.6231666395399306,0.4966512044270833,0.47979994032118056]","[0.20514390733506943,0.10345492892795138,0.3977913241916233,-0.3584315999348958,-0.3999028862847222,-0.03459927029079861,0.07935614691840277,0.2635172356499566,-0.4294938151041667,-0.3970632595486111]","[1,1,1,1,1,1,1,1,1,1]","[0,0,0,0,0,0,0,0,0,0]","[0,0,0,0,0,0,0,0,0,0]","[1.149300000004473,1.715999999999994,2.4823000000044715,3.199900000005954,3.667100000001483,4.332100000001489,4.848200000002976,5.581800000004463,6.365800000004469,8.51570000000298]","[""blk1"",""blk2"",""blk3"",""blk4"",""blk5"",""blk2"",""blk7""]","[1,1,1,1,1,0]",0,91.8955,92.8932,6,0,6,0,1
,,,,,,,,,,,802588,001,2024-02-19_14h43.41.272,corsi_blocks,2023.2.2,MacIntel,63.29113924,92.8937,"[[-0.68625,-0.225],[0.0675,0.07375],[0.25625,0.0975],[-0.485,0.34625],[0.05875,-0.0575],[-0.01875,0.235],[-0.6025,0.0725],[0.62875,-0.1825],[-0.35125,0.36625]]",93.393,93.3937,93.8935,0,0,0,0,1,,,,,,,,,,,,,,,,,,
,,,,,,,,,,,802588,001,2024-02-19_14h43.41.272,corsi_blocks,2023.2.2,MacIntel,63.29113924,,,,93.894,94.3936,1,0,1,0,1,,,,,,,,,,,,,,,,,,
,,,,,,,,,,,802588,001,2024-02-19_14h43.41.272,corsi_blocks,2023.2.2,MacIntel,63.29113924,,,,94.3942,94.8943,2,0,2,0,1,,,,,,,,,,,,,,,,,,
,,,,,,,,,,,802588,001,2024-02-19_14h43.41.272,corsi_blocks,2023.2.2,MacIntel,63.29113924,,,,94.8947,95.3935,3,0,3,0,1,,,,,,,,,,,,,,,,,,
,,,,,,,,,,,802588,001,2024-02-19_14h43.41.272,corsi_blocks,2023.2.2,MacIntel,63.29113924,,,,95.3941,95.8934,4,0,4,0,1,,,,,,,,,,,,,,,,,,
,,,,,,,,,,,802588,001,2024-02-19_14h43.41.272,corsi_blocks,2023.2.2,MacIntel,63.29113924,,,,95.8938,96.3936,5,0,5,0,1,,,,,,,,,,,,,,,,,,
,,,,,,,,,,,802588,001,2024-02-19_14h43.41.272,corsi_blocks,2023.2.2,MacIntel,63.29113924,,,,96.3943,96.8943,6,0,6,0,1,,,,,,,,,,,,,,,,,,
,,,,,,,,,,,802588,001,2024-02-19_14h43.41.272,corsi_blocks,2023.2.2,MacIntel,63.29113924,,,,,,,,,,,96.8945,102.4773,"[-0.6755120680067275,0.089775390625,0.21359198676215277,-0.514903089735243,0.09068223741319445,-0.03244350857204861,-0.579729987250434,0.5317045084635417]","[-0.21485765245225694,0.06351331922743056,0.10572642008463541,0.362292972140842,-0.013341301812065972,0.2734463670518663,0.0842230224609375,-0.3948196072048611]","[1,1,1,1,1,1,1,1]","[0,0,0,0,0,0,0,0]","[0,0,0,0,0,0,0,0]","[0.8205000000000098,1.565899999998507,2.0655,2.814600000001491,3.3981999999955264,4.147899999998515,4.798000000000002,5.5811000000014985]","[""blk1"",""blk2"",""blk3"",""blk4"",""blk5"",""blk6"",""blk7""]","[1,1,1,1,1,1,1]",1,102.4779,103.4762,7,0,7,0,1
,,,,,,,,,,,802588,001,2024-02-19_14h43.41.272,corsi_blocks,2023.2.2,MacIntel,63.29113924,103.4768,"[[0.28875,0.39875],[0.16625,0.3825],[-0.09875,0.065],[0.54,0.03625],[-0.01875,0.235],[0.4125,-0.1325],[0.6375,0.27375],[-0.01125,-0.295],[0.4625,0.35875]]",103.9764,103.9775,104.4765,0,0,0,0,1,,,,,,,,,,,,,,,,,,
,,,,,,,,,,,802588,001,2024-02-19_14h43.41.272,corsi_blocks,2023.2.2,MacIntel,63.29113924,,,,104.4771,104.9763,1,0,1,0,1,,,,,,,,,,,,,,,,,,
,,,,,,,,,,,802588,001,2024-02-19_14h43.41.272,corsi_blocks,2023.2.2,MacIntel,63.29113924,,,,104.9769,105.4766,2,0,2,0,1,,,,,,,,,,,,,,,,,,
,,,,,,,,,,,802588,001,2024-02-19_14h43.41.272,corsi_blocks,2023.2.2,MacIntel,63.29113924,,,,105.4772,105.9764,3,0,3,0,1,,,,,,,,,,,,,,,,,,
,,,,,,,,,,,802588,001,2024-02-19_14h43.41.272,corsi_blocks,2023.2.2,MacIntel,63.29113924,,,,105.9768,106.4773,4,0,4,0,1,,,,,,,,,,,,,,,,,,
,,,,,,,,,,,802588,001,2024-02-19_14h43.41.272,corsi_blocks,2023.2.2,MacIntel,63.29113924,,,,106.4777,106.9765,5,0,5,0,1,,,,,,,,,,,,,,,,,,
,,,,,,,,,,,802588,001,2024-02-19_14h43.41.272,corsi_blocks,2023.2.2,MacIntel,63.29113924,,,,106.977,107.4764,6,0,6,0,1,,,,,,,,,,,,,,,,,,
,,,,,,,,,,,802588,001,2024-02-19_14h43.41.272,corsi_blocks,2023.2.2,MacIntel,63.29113924,,,,107.4769,107.9807,7,0,7,0,1,,,,,,,,,,,,,,,,,,
,,,,,,,,,,,802588,001,2024-02-19_14h43.41.272,corsi_blocks,2023.2.2,MacIntel,63.29113924,,,,,,,,,,,107.9813,114.1777,"[0.2854168023003472,0.18021009657118056,-0.06426744249131944,0.553775634765625,0.42959418402777777,-0.030233696831597223,0.007877739800347222,0.6053221299913194,0.4722787814670139]","[0.3694531589084201,0.3802723693847656,0.1071696302625868,0.05900811089409722,-0.08694424099392362,0.2554322814941406,-0.2797381591796875,0.2851815456814236,-0.4015451388888889]","[1,1,1,1,1,1,1,1,1]","[0,0,0,0,0,0,0,0,0]","[0,0,0,0,0,0,0,0,0]","[0.6769999999999925,1.2436999999955276,1.8937999999970145,2.727499999999992,3.2103999999985007,3.8771999999955256,4.80969999999553,5.4598999999985125,6.1943999999985095]","[""blk1"",""blk2"",""blk3"",""blk4"",""blk6"",""blk5"",""blk8"",""blk7""]","[1,1,1,1,0,0,0,0]",0,114.1782,115.176,8,0,8,0,1