instructions.started,instructions.stopped,key_resp.keys,key_resp.rt,key_resp.duration,mouse.x,mouse.y,mouse.leftButton,mouse.midButton,mouse.rightButton,mouse.time,participant,session,date,expName,psychopyVersion,OS,frameRate,ISI.started,positions,ISI.stopped,corsi_present.started,corsi_present.stopped,block_sequence.thisRepN,block_sequence.thisTrialN,block_sequence.thisN,block_sequence.thisIndex,block_sequence.ran,corsi_respond.started,corsi_respond.stopped,corsi_mouse.x,corsi_mouse.y,corsi_mouse.leftButton,corsi_mouse.midButton,corsi_mouse.rightButton,corsi_mouse.time,corsi_mouse.clicked_name,correct_list,corsi_correct,feedback.started,feedback.stopped,corsi_task.thisRepN,corsi_task.thisTrialN,corsi_task.thisN,corsi_task.thisIndex,corsi_task.ran
0,3.9905,space,3.9601,,,,,,,,jc,001,2023-12-20_19h36.00.435,corsi_blocks,2023.2.2,MacIntel,59.88023952,,,,,,,,,,,,,,,,,,,,,,,,,,,,
,,,,,,,,,,,jc,001,2023-12-20_19h36.00.435,corsi_blocks,2023.2.2,MacIntel,59.88023952,3.9977,"[[0.16625,0.3825],[0.0675,0.07375],[-0.01875,0.235],[-0.35125,0.36625],[-0.45875,-0.3],[-0.24625,0.04375],[0.54,0.03625],[0.4125,-0.1325],[-0.3575,-0.05625]]",4.4915,4.4943,4.9899,0,0,0,0,1,,,,,,,,,,,,,,,,,,
,,,,,,,,,,,jc,001,2023-12-20_19h36.00.435,corsi_blocks,2023.2.2,MacIntel,59.88023952,,,,4.9912,5.4908,1,0,1,0,1,,,,,,,,,,,,,,,,,,
,,,,,,,,,,,jc,001,2023-12-20_19h36.00.435,corsi_blocks,2023.2.2,MacIntel,59.88023952,,,,5.4915,5.9925,2,0,2,0,1,,,,,,,,,,,,,,,,,,
,,,,,,,,,,,jc,001,2023-12-20_19h36.00.435,corsi_blocks,2023.2.2,MacIntel,59.88023952,,,,,,,,,,,5.9933,9.7749,"[0.1780078125,0.09953125,-0.007291666666666667,0.5313064236111111]","[0.402890625,0.08622395833333334,0.21720486111111112,-0.41760850694444446]","[1,1,1,1]","[0,0,0,0]","[0,0,0,0]","[1.479499999999998,2.12929999999702,2.6765000000000008,3.7779000000059604]","[""blk1"",""blk2"",""blk3""]","[1,1,1]",1,9.7753,10.7724,0,0,0,0,1
,,,,,,,,,,,jc,001,2023-12-20_19h36.00.435,corsi_blocks,2023.2.2,MacIntel,59.88023952,10.7729,"[[0.16625,0.3825],[0.19375,-0.17125],[0.0675,0.07375],[-0.285,-0.27125],[-0.24625,0.04375],[0.54,0.03625],[-0.01875,0.235],[0.22,0.2425],[0.45375,0.175]]",11.2754,11.2765,11.7744,0,0,0,0,1,,,,,,,,,,,,,,,,,,
,,,,,,,,,,,jc,001,2023-12-20_19h36.00.435,corsi_blocks,2023.2.2,MacIntel,59.88023952,,,,11.7751,12.2749,1,0,1,0,1,,,,,,,,,,,,,,,,,,
,,,,,,,,,,,jc,001,2023-12-20_19h36.00.435,corsi_blocks,2023.2.2,MacIntel,59.88023952,,,,12.2757,12.7747,2,0,2,0,1,,,,,,,,,,,,,,,,,,
,,,,,,,,,,,jc,001,2023-12-20_19h36.00.435,corsi_blocks,2023.2.2,MacIntel,59.88023952,,,,12.7755,13.2754,3,0,3,0,1,,,,,,,,,,,,,,,,,,
,,,,,,,,,,,jc,001,2023-12-20_19h36.00.435,corsi_blocks,2023.2.2,MacIntel,59.88023952,,,,,,,,,,,13.2755,17.1729,"[0.20701822916666668,0.19764756944444445,0.08633246527777778,0.07379340277777778,-0.2699001736111111,0.49865017361111114]","[0.4084375,-0.143203125,0.02327690972222222,0.05685763888888889,-0.24623697916666668,-0.39988715277777775]","[1,1,1,1,1,1]","[0,0,0,0,0,0]","[0,0,0,0,0,0]","[0.7300000000000004,1.3157999999970187,1.7992999999970216,2.3805999999940397,3.0651999999880815,3.8963999999910612]","[""blk1"",""blk2"",""blk3"",""blk4""]","[1,1,1,1]",1,17.1734,18.1737,1,0,1,0,1
,,,,,,,,,,,jc,001,2023-12-20_19h36.00.435,corsi_blocks,2023.2.2,MacIntel,59.88023952,18.1742,"[[0.19375,-0.17125],[-0.68625,-0.225],[-0.675,0.29875],[0.6375,0.27375],[0.57875,-0.31375],[0.03125,-0.41],[0.25625,0.0975],[-0.0225,0.395],[-0.16125,-0.28]]",18.6811,18.6819,19.1756,0,0,0,0,1,,,,,,,,,,,,,,,,,,
,,,,,,,,,,,jc,001,2023-12-20_19h36.00.435,corsi_blocks,2023.2.2,MacIntel,59.88023952,,,,19.1763,19.676,1,0,1,0,1,,,,,,,,,,,,,,,,,,
,,,,,,,,,,,jc,001,2023-12-20_19h36.00.435,corsi_blocks,2023.2.2,MacIntel,59.88023952,,,,19.6766,20.1757,2,0,2,0,1,,,,,,,,,,,,,,,,,,
,,,,,,,,,,,jc,001,2023-12-20_19h36.00.435,corsi_blocks,2023.2.2,MacIntel,59.88023952,,,,20.1763,20.6752,3,0,3,0,1,,,,,,,,,,,,,,,,,,
,,,,,,,,,,,jc,001,2023-12-20_19h36.00.435,corsi_blocks,2023.2.2,MacIntel,59.88023952,,,,20.6759,21.1743,4,0,4,0,1,,,,,,,,,,,,,,,,,,
,,,,,,,,,,,jc,001,2023-12-20_19h36.00.435,corsi_blocks,2023.2.2,MacIntel,59.88023952,,,,,,,,,,,21.1745,25.1932,"[0.17294270833333333,-0.6823480902777778,-0.6865842013888889,0.592265625,0.5674609375,0.5023350694444444]","[-0.18286458333333333,-0.21264756944444443,0.311953125,0.2836458333333333,-0.2961197916666667,-0.4040234375]","[1,1,1,1,1,1]","[0,0,0,0,0,0]","[0,0,0,0,0,0]","[0.5664999999999978,1.3507000000029805,1.913499999999999,2.650499999999994,3.46520000000298,4.017700000002975]","[""blk1"",""blk2"",""blk3"",""blk4"",""blk5""]","[1,1,1,1,1]",1,25.1937,26.1917,2,0,2,0,1
,,,,,,,,,,,jc,001,2023-12-20_19h36.00.435,corsi_blocks,2023.2.2,MacIntel,59.88023952,26.1922,"[[0.365,-0.27625],[0.25625,0.0975],[-0.4075,0.11875],[0.62875,-0.1825],[0.1925,-0.295],[0.28875,0.39875],[0.30125,-0.0175],[0.45375,0.175],[-0.45875,-0.3]]",26.6912,26.6932,27.1924,0,0,0,0,1,,,,,,,,,,,,,,,,,,
,,,,,,,,,,,jc,001,2023-12-20_19h36.00.435,corsi_blocks,2023.2.2,MacIntel,59.88023952,,,,27.193,27.6924,1,0,1,0,1,,,,,,,,,,,,,,,,,,
,,,,,,,,,,,jc,001,2023-12-20_19h36.00.435,corsi_blocks,2023.2.2,MacIntel,59.88023952,,,,27.6929,28.193,2,0,2,0,1,,,,,,,,,,,,,,,,,,
,,,,,,,,,,,jc,001,2023-12-20_19h36.00.435,corsi_blocks,2023.2.2,MacIntel,59.88023952,,,,28.1938,28.6944,3,0,3,0,1,,,,,,,,,,,,,,,,,,
,,,,,,,,,,,jc,001,2023-12-20_19h36.00.435,corsi_blocks,2023.2.2,MacIntel,59.88023952,,,,28.6949,29.1936,4,0,4,0,1,,,,,,,,,,,,,,,,,,
,,,,,,,,,,,jc,001,2023-12-20_19h36.00.435,corsi_blocks,2023.2.2,MacIntel,59.88023952,,,,29.1942,29.6926,5,0,5,0,1,,,,,,,,,,,,,,,,,,
,,,,,,,,,,,jc,001,2023-12-20_19h36.00.435,corsi_blocks,2023.2.2,MacIntel,59.88023952,,,,,,,,,,,29.6928,36.023,"[0.3348567708333333,0.2654904513888889,-0.412109375,0.5895269097222222,0.18378472222222222,0.2876605902777778,0.5088932291666667,0.5083376736111112]","[-0.28812934027777776,0.07264756944444445,0.14643229166666666,-0.14720920138888888,-0.28876302083333333,0.39513454861111114,-0.43129774305555557,-0.3890885416666667]","[1,1,1,1,1,1,1,1]","[0,0,0,0,0,0,0,0]","[0,0,0,0,0,0,0,0]","[0.23140000000595506,0.9657999999970173,1.5977000000029804,2.562600000008942,3.347900000005957,4.2812000000029755,5.030200000002978,6.3291000000089355]","[""blk1"",""blk2"",""blk3"",""blk4"",""blk5"",""blk6""]","[1,1,1,1,1,1]",1,36.0238,37.0243,3,0,3,0,1
,,,,,,,,,,,jc,001,2023-12-20_19h36.00.435,corsi_blocks,2023.2.2,MacIntel,59.88023952,37.0248,"[[-0.18625,0.41125],[0.28875,0.39875],[0.6375,0.27375],[0.57875,-0.31375],[0.03125,-0.41],[-0.3575,-0.05625],[0.22,0.2425],[-0.285,-0.27125],[0.30125,-0.0175]]",37.5253,37.5265,38.0252,0,0,0,0,1,,,,,,,,,,,,,,,,,,
,,,,,,,,,,,jc,001,2023-12-20_19h36.00.435,corsi_blocks,2023.2.2,MacIntel,59.88023952,,,,38.0258,38.5259,1,0,1,0,1,,,,,,,,,,,,,,,,,,
,,,,,,,,,,,jc,001,2023-12-20_19h36.00.435,corsi_blocks,2023.2.2,MacIntel,59.88023952,,,,38.5266,39.0242,2,0,2,0,1,,,,,,,,,,,,,,,,,,
,,,,,,,,,,,jc,001,2023-12-20_19h36.00.435,corsi_blocks,2023.2.2,MacIntel,59.88023952,,,,39.0246,39.5255,3,0,3,0,1,,,,,,,,,,,,,,,,,,
,,,,,,,,,,,jc,001,2023-12-20_19h36.00.435,corsi_blocks,2023.2.2,MacIntel,59.88023952,,,,39.5261,40.0226,4,0,4,0,1,,,,,,,,,,,,,,,,,,
,,,,,,,,,,,jc,001,2023-12-20_19h36.00.435,corsi_blocks,2023.2.2,MacIntel,59.88023952,,,,40.023,40.524,5,0,5,0,1,,,,,,,,,,,,,,,,,,
,,,,,,,,,,,jc,001,2023-12-20_19h36.00.435,corsi_blocks,2023.2.2,MacIntel,59.88023952,,,,40.5245,41.0245,6,0,6,0,1,,,,,,,,,,,,,,,,,,
,,,,,,,,,,,jc,001,2023-12-20_19h36.00.435,corsi_blocks,2023.2.2,MacIntel,59.88023952,,,,,,,,,,,41.0248,49.4428,"[-0.1250390625,-0.18317274305555556,0.2741753472222222,0.6073784722222222,0.5778081597222222,0.5763151041666666,0.048328993055555554,-0.36572048611111113,0.21480034722222222,0.4930251736111111,0.48749131944444446]","[0.38546875,0.40641493055555555,0.40338975694444446,0.30688368055555554,-0.25598524305555553,-0.29651041666666667,-0.3846744791666667,-0.07559895833333333,0.22006944444444446,-0.42636284722222223,-0.3963715277777778]","[1,1,1,1,1,1,1,1,1,1,1]","[0,0,0,0,0,0,0,0,0,0,0]","[0,0,0,0,0,0,0,0,0,0,0]","[1.2135999999940381,1.9823999999910598,2.5325999999940407,3.1174999999999997,3.863599999994044,4.448599999994045,5.217200000002983,5.981000000000002,6.514500000000005,7.413399999991064,8.416000000000004]","[""blk1"",""blk2"",""blk3"",""blk4"",""blk5"",""blk6"",""blk7""]","[1,1,1,1,1,1,1]",1,49.4436,50.4427,4,0,4,0,1
,,,,,,,,,,,jc,001,2023-12-20_19h36.00.435,corsi_blocks,2023.2.2,MacIntel,59.88023952,50.4432,"[[-0.35125,0.36625],[-0.09875,0.065],[-0.3575,-0.05625],[0.30125,-0.0175],[0.6375,0.27375],[-0.675,0.29875],[-0.485,0.34625],[0.03125,-0.41],[-0.01875,0.235]]",50.9417,50.9429,51.4413,0,0,0,0,1,,,,,,,,,,,,,,,,,,
,,,,,,,,,,,jc,001,2023-12-20_19h36.00.435,corsi_blocks,2023.2.2,MacIntel,59.88023952,,,,51.442,51.9429,1,0,1,0,1,,,,,,,,,,,,,,,,,,
,,,,,,,,,,,jc,001,2023-12-20_19h36.00.435,corsi_blocks,2023.2.2,MacIntel,59.88023952,,,,51.9435,52.4413,2,0,2,0,1,,,,,,,,,,,,,,,,,,
,,,,,,,,,,,jc,001,2023-12-20_19h36.00.435,corsi_blocks,2023.2.2,MacIntel,59.88023952,,,,52.4421,52.9423,3,0,3,0,1,,,,,,,,,,,,,,,,,,
,,,,,,,,,,,jc,001,2023-12-20_19h36.00.435,corsi_blocks,2023.2.2,MacIntel,59.88023952,,,,52.9433,53.4417,4,0,4,0,1,,,,,,,,,,,,,,,,,,
,,,,,,,,,,,jc,001,2023-12-20_19h36.00.435,corsi_blocks,2023.2.2,MacIntel,59.88023952,,,,53.4425,53.9399,5,0,5,0,1,,,,,,,,,,,,,,,,,,
,,,,,,,,,,,jc,001,2023-12-20_19h36.00.435,corsi_blocks,2023.2.2,MacIntel,59.88023952,,,,53.9404,54.4426,6,0,6,0,1,,,,,,,,,,,,,,,,,,
,,,,,,,,,,,jc,001,2023-12-20_19h36.00.435,corsi_blocks,2023.2.2,MacIntel,59.88023952,,,,54.4433,54.9427,7,0,7,0,1,,,,,,,,,,,,,,,,,,
,,,,,,,,,,,jc,001,2023-12-20_19h36.00.435,corsi_blocks,2023.2.2,MacIntel,59.88023952,,,,,,,,,,,54.943,64.4605,"[-0.34627604166666665,-0.12485677083333334,-0.30102864583333333,-0.31112413194444444,-0.501796875,0.2796657986111111,0.040026041666666665,-0.03017361111111111,0.6242795138888889,0.5161588541666666,0.4974782986111111]","[0.3849001736111111,0.09394097222222222,0.0006901041666666667,-0.009518229166666666,0.3426519097222222,-0.0006206597222222222,-0.36819010416666664,0.2602994791666667,0.25743055555555555,-0.3732986111111111,-0.3985720486111111]","[1,1,1,1,1,1,1,1,1,1,1]","[0,0,0,0,0,0,0,0,0,0,0]","[0,0,0,0,0,0,0,0,0,0,0]","[2.0134000000059658,2.6307000000029817,3.1965000000000074,3.61340000000596,5.1479000000059685,5.847200000002978,6.532000000000004,7.194400000005963,7.781400000005966,8.464700000002985,9.515200000002984]","[""blk1"",""blk2"",""blk3"",""blk7"",""blk4"",""blk8"",""blk9"",""blk5""]","[1,1,1,0,0,0,0,0]",0,64.4621,65.46,5,0,5,0,1
,,,,,,,,,,,jc,001,2023-12-20_19h36.00.435,corsi_blocks,2023.2.2,MacIntel,59.88023952,65.4608,"[[-0.12125,-0.12625],[0.45375,0.175],[0.54,0.03625],[-0.68625,-0.225],[-0.01875,0.235],[-0.01125,-0.295],[-0.4075,0.11875],[0.6375,0.27375],[-0.24625,0.04375]]",65.9591,65.9608,66.4577,0,0,0,0,1,,,,,,,,,,,,,,,,,,
,,,,,,,,,,,jc,001,2023-12-20_19h36.00.435,corsi_blocks,2023.2.2,MacIntel,59.88023952,,,,66.4583,66.9594,1,0,1,0,1,,,,,,,,,,,,,,,,,,
,,,,,,,,,,,jc,001,2023-12-20_19h36.00.435,corsi_blocks,2023.2.2,MacIntel,59.88023952,,,,66.9601,67.4582,2,0,2,0,1,,,,,,,,,,,,,,,,,,
,,,,,,,,,,,jc,001,2023-12-20_19h36.00.435,corsi_blocks,2023.2.2,MacIntel,59.88023952,,,,67.4587,67.9596,3,0,3,0,1,,,,,,,,,,,,,,,,,,
,,,,,,,,,,,jc,001,2023-12-20_19h36.00.435,corsi_blocks,2023.2.2,MacIntel,59.88023952,,,,67.9601,68.4597,4,0,4,0,1,,,,,,,,,,,,,,,,,,
,,,,,,,,,,,jc,001,2023-12-20_19h36.00.435,corsi_blocks,2023.2.2,MacIntel,59.88023952,,,,68.4604,68.9566,5,0,5,0,1,,,,,,,,,,,,,,,,,,
,,,,,,,,,,,jc,001,2023-12-20_19h36.00.435,corsi_blocks,2023.2.2,MacIntel,59.88023952,,,,68.9575,69.4591,6,0,6,0,1,,,,,,,,,,,,,,,,,,
,,,,,,,,,,,jc,001,2023-12-20_19h36.00.435,corsi_blocks,2023.2.2,MacIntel,59.88023952,,,,69.4598,69.9565,7,0,7,0,1,,,,,,,,,,,,,,,,,,
,,,,,,,,,,,jc,001,2023-12-20_19h36.00.435,corsi_blocks,2023.2.2,MacIntel,59.88023952,,,,,,,,,,,69.9567,78.1439,"[-0.09455729166666667,0.40868489583333334,0.5331293402777778,-0.6887065972222223,-0.4042751736111111,0.00024305555555555555,0.6440928819444445,0.012877604166666667,0.4513064236111111]","[-0.13945746527777778,0.14861979166666667,0.03296440972222222,-0.22290364583333333,0.1117361111111111,0.20717447916666668,0.30053385416666667,-0.2993402777777778,-0.39079861111111114]","[1,1,1,1,1,1,1,1,1]","[0,0,0,0,0,0,0,0,0]","[0,0,0,0,0,0,0,0,0]","[0.6495000000000033,1.3695000000000022,2.4692999999970198,3.3812999999970117,4.065700000002977,4.899599999994038,6.71929999999702,7.519200000002982,8.185799999997016]","[""blk1"",""blk2"",""blk3"",""blk4"",""blk7"",""blk5"",""blk8"",""blk6""]","[1,1,1,1,0,0,0,0]",0,78.1452,79.1421,6,0,6,0,1
,,,,,,,,,,,jc,001,2023-12-20_19h36.00.435,corsi_blocks,2023.2.2,MacIntel,59.88023952,79.1425,"[[0.03125,-0.41],[-0.01125,-0.295],[0.0675,0.07375],[-0.18625,0.41125],[0.25625,0.0975],[0.45375,0.175],[0.30125,-0.0175],[-0.68625,-0.225],[0.4625,0.35875]]",79.6417,79.6429,80.1417,0,0,0,0,1,,,,,,,,,,,,,,,,,,
,,,,,,,,,,,jc,001,2023-12-20_19h36.00.435,corsi_blocks,2023.2.2,MacIntel,59.88023952,,,,80.1423,80.6399,1,0,1,0,1,,,,,,,,,,,,,,,,,,
,,,,,,,,,,,jc,001,2023-12-20_19h36.00.435,corsi_blocks,2023.2.2,MacIntel,59.88023952,,,,80.6404,81.1425,2,0,2,0,1,,,,,,,,,,,,,,,,,,
,,,,,,,,,,,jc,001,2023-12-20_19h36.00.435,corsi_blocks,2023.2.2,MacIntel,59.88023952,,,,81.143,81.6403,3,0,3,0,1,,,,,,,,,,,,,,,,,,
,,,,,,,,,,,jc,001,2023-12-20_19h36.00.435,corsi_blocks,2023.2.2,MacIntel,59.88023952,,,,81.6408,82.1399,4,0,4,0,1,,,,,,,,,,,,,,,,,,
,,,,,,,,,,,jc,001,2023-12-20_19h36.00.435,corsi_blocks,2023.2.2,MacIntel,59.88023952,,,,82.1405,82.64,5,0,5,0,1,,,,,,,,,,,,,,,,,,
,,,,,,,,,,,jc,001,2023-12-20_19h36.00.435,corsi_blocks,2023.2.2,MacIntel,59.88023952,,,,82.6404,83.1427,6,0,6,0,1,,,,,,,,,,,,,,,,,,
,,,,,,,,,,,jc,001,2023-12-20_19h36.00.435,corsi_blocks,2023.2.2,MacIntel,59.88023952,,,,83.1433,83.6419,7,0,7,0,1,,,,,,,,,,,,,,,,,,
,,,,,,,,,,,jc,001,2023-12-20_19h36.00.435,corsi_blocks,2023.2.2,MacIntel,59.88023952,,,,,,,,,,,83.6421,91.4406,"[0.028207465277777777,-0.0017578125,0.07109809027777778,-0.15999131944444445,0.3093663194444444,0.2707421875,0.4434982638888889,-0.6838758680555556,0.5023350694444444,0.49996961805555556]","[-0.4115972222222222,-0.2628993055555556,0.07203125,0.39706597222222223,-0.01707465277777778,0.08813802083333333,0.15139322916666667,-0.22865885416666668,-0.3671831597222222,-0.4069748263888889]","[1,1,1,1,1,1,1,1,1,1]","[0,0,0,0,0,0,0,0,0,0]","[0,0,0,0,0,0,0,0,0,0]","[2.11639999999106,2.6817999999970255,3.2657000000029797,3.864999999999995,4.564299999997019,5.014799999997024,5.466999999999999,6.200999999999993,7.001299999997016,7.797599999994034]","[""blk1"",""blk2"",""blk3"",""blk4"",""blk7"",""blk5"",""blk6"",""blk8""]","[1,1,1,1,0,0,0,1]",0,91.4423,92.4435,7,0,7,0,1
,,,,,,,,,,,jc,001,2023-12-20_19h36.00.435,corsi_blocks,2023.2.2,MacIntel,59.88023952,92.444,"[[-0.6025,0.0725],[0.25625,0.0975],[0.22,0.2425],[-0.3575,-0.05625],[0.0675,0.07375],[0.03125,-0.41],[-0.26625,0.235],[0.6375,0.27375],[0.30125,-0.0175]]",92.9413,92.943,93.4432,0,0,0,0,1,,,,,,,,,,,,,,,,,,
,,,,,,,,,,,jc,001,2023-12-20_19h36.00.435,corsi_blocks,2023.2.2,MacIntel,59.88023952,,,,93.4437,93.9435,1,0,1,0,1,,,,,,,,,,,,,,,,,,
,,,,,,,,,,,jc,001,2023-12-20_19h36.00.435,corsi_blocks,2023.2.2,MacIntel,59.88023952,,,,93.9441,94.4444,2,0,2,0,1,,,,,,,,,,,,,,,,,,
,,,,,,,,,,,jc,001,2023-12-20_19h36.00.435,corsi_blocks,2023.2.2,MacIntel,59.88023952,,,,94.4447,94.944,3,0,3,0,1,,,,,,,,,,,,,,,,,,
,,,,,,,,,,,jc,001,2023-12-20_19h36.00.435,corsi_blocks,2023.2.2,MacIntel,59.88023952,,,,94.9448,95.4428,4,0,4,0,1,,,,,,,,,,,,,,,,,,
,,,,,,,,,,,jc,001,2023-12-20_19h36.00.435,corsi_blocks,2023.2.2,MacIntel,59.88023952,,,,95.4434,95.9438,5,0,5,0,1,,,,,,,,,,,,,,,,,,
,,,,,,,,,,,jc,001,2023-12-20_19h36.00.435,corsi_blocks,2023.2.2,MacIntel,59.88023952,,,,95.9445,96.4424,6,0,6,0,1,,,,,,,,,,,,,,,,,,
,,,,,,,,,,,jc,001,2023-12-20_19h36.00.435,corsi_blocks,2023.2.2,MacIntel,59.88023952,,,,96.4428,96.9433,7,0,7,0,1,,,,,,,,,,,,,,,,,,
,,,,,,,,,,,jc,001,2023-12-20_19h36.00.435,corsi_blocks,2023.2.2,MacIntel,59.88023952,,,,,,,,,,,96.9435,104.609,"[-0.5582942708333334,0.2465234375,-0.32023871527777775,0.22350260416666667,0.025889756944444446,-0.26166666666666666,0.09090277777777778,0.6238715277777778,0.4675651041666667]","[0.05821614583333334,0.0840234375,-0.04381076388888889,0.22753038194444444,-0.41398871527777775,0.21093315972222224,0.10042534722222222,0.2561935763888889,-0.4024435763888889]","[1,1,1,1,1,1,1,1,1]","[0,0,0,0,0,0,0,0,0]","[0,0,0,0,0,0,0,0,0]","[2.214500000000001,2.8475999999940314,3.513999999999996,4.130799999997009,4.915499999999994,5.646299999997012,6.262299999997012,6.9465,7.664299999997013]","[""blk1"",""blk2"",""blk4"",""blk3"",""blk6"",""blk7"",""blk5"",""blk8""]","[1,1,0,0,0,0,0,1]",0,104.6113,105.6104,8,0,8,0,1