imageFile,corrAns,sameOrDiff,trials.thisRepN,trials.thisTrialN,trials.thisN,trials.thisIndex,thisRow.t,notes,Instructions.started,background.started,startKey.started,instructionstxt.started,Instructions.stopped,trial.started,background_2.started,faces.started,resp.started,trial_counter.started,reminder.started,trial.stopped,resp.keys,resp.corr,resp.rt,resp.duration,feedback.started,background_3.started,textbox.started,reminder_2.started,trial_counter_2.started,feedback.stopped,background_3.stopped,textbox.stopped,reminder_2.stopped,trial_counter_2.stopped,thanks.started,background_4.started,endmsg.started,participant,session,date,expName,psychopyVersion,frameRate,expStart,
same/57c.png,left,same,0,0,0,2,3.975561600003857,,0.014889499987475574,0.04056180000770837,0.04056180000770837,0.04056180000770837,3.829529399983585,3.878144699963741,3.975561600003857,3.975561600003857,3.975561600003857,3.975561600003857,3.975561600003857,9.111355700006243,left,1,5.128440500004217,None,9.111867400002666,9.13721539999824,9.13721539999824,9.13721539999824,9.13721539999824,10.164412899990566,,,,,,,,629366,001,2024-03-27_12h32.28.160,glasgow_face_matching,2023.2.3,74.94864144065349,2024-03-27 12h32.41.477002 -0300,
different/24b.png,right,different,0,1,1,29,10.20428439998068,,,,,,,10.164676500018686,10.20428439998068,10.20428439998068,10.20428439998068,10.20428439998068,10.20428439998068,11.992498699983116,right,1,1.778131500002928,None,11.992864999978337,12.018338499998208,12.018338499998208,12.018338499998208,12.018338499998208,13.005510699993465,,,,,,,,629366,001,2024-03-27_12h32.28.160,glasgow_face_matching,2023.2.3,74.94864144065349,2024-03-27 12h32.41.477002 -0300,
same/82a.png,left,same,0,2,2,15,13.045352499990258,,,,,,,13.00577789999079,13.045352499990258,13.045352499990258,13.045352499990258,13.045352499990258,13.045352499990258,14.179901099996641,right,0,1.1217772000236437,None,14.180216200009454,14.205777900002431,14.205777900002431,14.205777900002431,14.205777900002431,15.192884399963077,,,,,,,,629366,001,2024-03-27_12h32.28.160,glasgow_face_matching,2023.2.3,74.94864144065349,2024-03-27 12h32.41.477002 -0300,
same/73a.png,left,same,0,3,3,8,15.232846800005063,,,,,,,15.193120300013106,15.232846800005063,15.232846800005063,15.232846800005063,15.232846800005063,15.232846800005063,16.674279299972113,right,0,1.4303158999537118,None,16.674626599997282,16.70006469998043,16.70006469998043,16.70006469998043,16.70006469998043,17.687217700004112,,,,,,,,629366,001,2024-03-27_12h32.28.160,glasgow_face_matching,2023.2.3,74.94864144065349,2024-03-27 12h32.41.477002 -0300,
different/19b.png,right,different,0,4,4,26,17.74046790000284,,,,,,,17.68755669996608,17.74046790000284,17.74046790000284,17.74046790000284,17.74046790000284,17.74046790000284,20.35565450001741,right,1,2.6102611999958754,None,20.355956799990963,20.381417399970815,20.381417399970815,20.381417399970815,20.381417399970815,21.368552699976135,,,,,,,,629366,001,2024-03-27_12h32.28.160,glasgow_face_matching,2023.2.3,74.94864144065349,2024-03-27 12h32.41.477002 -0300,
different/26b.png,right,different,0,5,5,31,21.408434899989516,,,,,,,21.36886320001213,21.408434899989516,21.408434899989516,21.408434899989516,21.408434899989516,21.408434899989516,22.903523400018457,right,1,1.4942085000220686,None,22.903857600002084,22.92903200001456,22.92903200001456,22.92903200001456,22.92903200001456,23.916145399969537,,,,,,,,629366,001,2024-03-27_12h32.28.160,glasgow_face_matching,2023.2.3,74.94864144065349,2024-03-27 12h32.41.477002 -0300,
same/64b.png,left,same,0,6,6,6,23.969440200016834,,,,,,,23.916374299966265,23.969440200016834,23.969440200016834,23.969440200016834,23.969440200016834,23.969440200016834,24.90384990000166,left,1,0.9258449000190012,None,24.904162199993152,24.929793099989183,24.929793099989183,24.929793099989183,24.929793099989183,25.91691329999594,,,,,,,,629366,001,2024-03-27_12h32.28.160,glasgow_face_matching,2023.2.3,74.94864144065349,2024-03-27 12h32.41.477002 -0300,
same/59a.png,left,same,0,7,7,4,25.956867399974726,,,,,,,25.91715649998514,25.956867399974726,25.956867399974726,25.956867399974726,25.956867399974726,25.956867399974726,27.51830070000142,right,0,1.5536119000171311,None,27.51867299998412,27.54411259997869,27.54411259997869,27.54411259997869,27.54411259997869,28.531227500003297,,,,,,,,629366,001,2024-03-27_12h32.28.160,glasgow_face_matching,2023.2.3,74.94864144065349,2024-03-27 12h32.41.477002 -0300,
same/76b.png,left,same,0,8,8,11,28.58448469999712,,,,,,,28.53148299996974,28.58448469999712,28.58448469999712,28.58448469999712,28.58448469999712,28.58448469999712,29.945730499981437,right,0,1.3502285000286065,None,29.946025000012014,29.958341899968218,29.958341899968218,29.958341899968218,29.958341899968218,30.945931900001597,30.998713199980557,30.998713199980557,30.998713199980557,30.998713199980557,,,,629366,001,2024-03-27_12h32.28.160,glasgow_face_matching,2023.2.3,74.94864144065349,2024-03-27 12h32.41.477002 -0300,
same/79a.png,left,same,0,9,9,13,30.998713199980557,,,,,,,30.94620569999097,30.998713199980557,30.998713199980557,30.998713199980557,30.998713199980557,30.998713199980557,33.507149400014896,right,0,2.5042684999643825,None,33.50745289999759,33.53302169998642,33.53302169998642,33.53302169998642,33.53302169998642,34.520126899995375,,,,,,,,629366,001,2024-03-27_12h32.28.160,glasgow_face_matching,2023.2.3,74.94864144065349,2024-03-27 12h32.41.477002 -0300,
different/40b.png,right,different,0,10,10,39,34.56005989998812,,,,,,,34.52037039998686,34.56005989998812,34.56005989998812,34.56005989998812,34.56005989998812,34.56005989998812,36.46826970000984,left,0,1.9023786999750882,None,36.46862649999093,36.49414029996842,36.49414029996842,36.49414029996842,36.49414029996842,37.48126610001782,,,,,,,,629366,001,2024-03-27_12h32.28.160,glasgow_face_matching,2023.2.3,74.94864144065349,2024-03-27 12h32.41.477002 -0300,
same/84a.png,left,same,0,11,11,16,37.53453539998736,,,,,,,37.48152570001548,37.53453539998736,37.53453539998736,37.53453539998736,37.53453539998736,37.53453539998736,39.24262819997966,left,1,1.7044379999861121,None,39.24296589998994,39.268521299993154,39.268521299993154,39.268521299993154,39.268521299993154,40.25559740001336,,,,,,,,629366,001,2024-03-27_12h32.28.160,glasgow_face_matching,2023.2.3,74.94864144065349,2024-03-27 12h32.41.477002 -0300,
same/69c.png,left,same,0,12,12,7,40.29555450001499,,,,,,,40.255844499974046,40.29555450001499,40.29555450001499,40.29555450001499,40.29555450001499,40.29555450001499,42.92399480001768,left,1,2.622926100040786,None,42.92432709998684,42.94984349998413,42.94984349998413,42.94984349998413,42.94984349998413,43.93703769997228,,,,,,,,629366,001,2024-03-27_12h32.28.160,glasgow_face_matching,2023.2.3,74.94864144065349,2024-03-27 12h32.41.477002 -0300,
same/63a.png,left,same,0,13,13,5,43.97689409996383,,,,,,,43.93730479996884,43.97689409996383,43.97689409996383,43.97689409996383,43.97689409996383,43.97689409996383,44.31120320002083,right,0,0.3260929000098258,None,44.311524000018835,44.337038500001654,44.337038500001654,44.337038500001654,44.337038500001654,45.32418399996823,,,,,,,,629366,001,2024-03-27_12h32.28.160,glasgow_face_matching,2023.2.3,74.94864144065349,2024-03-27 12h32.41.477002 -0300,
different/22a.png,right,different,0,14,14,28,45.36409019998973,,,,,,,45.324416399991605,45.36409019998973,45.36409019998973,45.36409019998973,45.36409019998973,45.36409019998973,45.63174430001527,left,0,0.2663294000085443,None,45.63205879996531,45.65757300000405,45.65757300000405,45.65757300000405,45.65757300000405,46.64477850002004,,,,,,,,629366,001,2024-03-27_12h32.28.160,glasgow_face_matching,2023.2.3,74.94864144065349,2024-03-27 12h32.41.477002 -0300,
different/7c.png,right,different,0,15,15,22,46.684557000000495,,,,,,,46.64517259999411,46.684557000000495,46.684557000000495,46.684557000000495,46.684557000000495,46.684557000000495,46.92552039999282,left,0,0.23455359996296465,None,46.92585830000462,46.95135109999683,46.95135109999683,46.95135109999683,46.95135109999683,47.938504999969155,,,,,,,,629366,001,2024-03-27_12h32.28.160,glasgow_face_matching,2023.2.3,74.94864144065349,2024-03-27 12h32.41.477002 -0300,
different/4a.png,right,different,0,16,16,21,47.991764699982014,,,,,,,47.93874119996326,47.991764699982014,47.991764699982014,47.991764699982014,47.991764699982014,47.991764699982014,48.25919559999602,left,0,0.2552649999852292,None,48.25948820001213,48.27187709999271,48.27187709999271,48.27187709999271,48.27187709999271,49.25937260000501,49.29891939996742,49.29891939996742,49.29891939996742,49.29891939996742,,,,629366,001,2024-03-27_12h32.28.160,glasgow_face_matching,2023.2.3,74.94864144065349,2024-03-27 12h32.41.477002 -0300,
different/18a.png,right,different,0,17,17,25,49.29891939996742,,,,,,,49.259594700008165,49.29891939996742,49.29891939996742,49.29891939996742,49.29891939996742,49.29891939996742,49.619750200014096,left,0,0.30756210000254214,None,49.620046800002456,49.645756600017194,49.645756600017194,49.645756600017194,49.645756600017194,50.632928400009405,,,,,,,,629366,001,2024-03-27_12h32.28.160,glasgow_face_matching,2023.2.3,74.94864144065349,2024-03-27 12h32.41.477002 -0300,
different/36c.png,right,different,0,18,18,38,50.67273330001626,,,,,,,50.63318339997204,50.67273330001626,50.67273330001626,50.67273330001626,50.67273330001626,50.67273330001626,51.153839999984484,left,0,0.4783016999717802,None,51.154160299978685,51.17962599999737,51.17962599999737,51.17962599999737,51.17962599999737,52.166725599963684,,,,,,,,629366,001,2024-03-27_12h32.28.160,glasgow_face_matching,2023.2.3,74.94864144065349,2024-03-27 12h32.41.477002 -0300,
same/56a.png,left,same,0,19,19,1,52.20667899999535,,,,,,,52.16695559996879,52.20667899999535,52.20667899999535,52.20667899999535,52.20667899999535,52.20667899999535,52.674282899999525,left,1,0.46510679996572435,None,52.67461280000862,52.70017769996775,52.70017769996775,52.70017769996775,52.70017769996775,53.68735660001403,,,,,,,,629366,001,2024-03-27_12h32.28.160,glasgow_face_matching,2023.2.3,74.94864144065349,2024-03-27 12h32.41.477002 -0300,
different/27b.png,right,different,0,20,20,32,53.72725100000389,,,,,,,53.68762179999612,53.72725100000389,53.72725100000389,53.72725100000389,53.72725100000389,53.72725100000389,54.075012299988884,left,0,0.3434209999977611,None,54.0753842999693,54.100714900007006,54.100714900007006,54.100714900007006,54.100714900007006,55.087836399965454,,,,,,,,629366,001,2024-03-27_12h32.28.160,glasgow_face_matching,2023.2.3,74.94864144065349,2024-03-27 12h32.41.477002 -0300,
same/88b.png,left,same,0,21,21,17,55.127793599967845,,,,,,,55.08808839996345,55.127793599967845,55.127793599967845,55.127793599967845,55.127793599967845,55.127793599967845,55.381963399995584,left,1,0.24675799999386072,None,55.38225899997633,55.40787310001906,55.40787310001906,55.40787310001906,55.40787310001906,56.39498849998927,,,,,,,,629366,001,2024-03-27_12h32.28.160,glasgow_face_matching,2023.2.3,74.94864144065349,2024-03-27 12h32.41.477002 -0300,
different/17a.png,right,different,0,22,22,24,56.43492289999267,,,,,,,56.39525210001739,56.43492289999267,56.43492289999267,56.43492289999267,56.43492289999267,56.43492289999267,56.689154399966355,left,0,0.25162579998141155,None,56.68947169999592,56.715034599998035,56.715034599998035,56.715034599998035,56.715034599998035,57.70213499997044,,,,,,,,629366,001,2024-03-27_12h32.28.160,glasgow_face_matching,2023.2.3,74.94864144065349,2024-03-27 12h32.41.477002 -0300,
same/55a.png,left,same,0,23,23,0,57.74207749997731,,,,,,,57.702373299980536,57.74207749997731,57.74207749997731,57.74207749997731,57.74207749997731,57.74207749997731,58.06298799999058,left,1,0.3124623000039719,None,58.063298899971414,58.08885810000356,58.08885810000356,58.08885810000356,58.08885810000356,59.075969099998474,,,,,,,,629366,001,2024-03-27_12h32.28.160,glasgow_face_matching,2023.2.3,74.94864144065349,2024-03-27 12h32.41.477002 -0300,
same/98a.png,left,same,0,24,24,19,59.115896600007545,,,,,,,59.07619379996322,59.115896600007545,59.115896600007545,59.115896600007545,59.115896600007545,59.115896600007545,59.583570300019346,left,1,0.4589722999953665,None,59.58387709996896,59.609458399994764,59.609458399994764,59.609458399994764,59.609458399994764,60.59664070000872,,,,,,,,629366,001,2024-03-27_12h32.28.160,glasgow_face_matching,2023.2.3,74.94864144065349,2024-03-27 12h32.41.477002 -0300,
different/32c.png,right,different,0,25,25,36,60.63644959998783,,,,,,,60.596993000013754,60.63644959998783,60.63644959998783,60.63644959998783,60.63644959998783,60.63644959998783,60.97065480001038,left,0,0.3223477999563329,None,60.97096639999654,60.99662910000188,60.99662910000188,60.99662910000188,60.99662910000188,61.98383829998784,,,,,,,,629366,001,2024-03-27_12h32.28.160,glasgow_face_matching,2023.2.3,74.94864144065349,2024-03-27 12h32.41.477002 -0300,
different/35b.png,right,different,0,26,26,37,62.023653400014155,,,,,,,61.9842106999713,62.023653400014155,62.023653400014155,62.023653400014155,62.023653400014155,62.023653400014155,62.30457560002105,left,0,0.27938670001458377,None,62.30490629997803,62.33047559997067,62.33047559997067,62.33047559997067,62.33047559997067,63.31758929998614,,,,,,,,629366,001,2024-03-27_12h32.28.160,glasgow_face_matching,2023.2.3,74.94864144065349,2024-03-27 12h32.41.477002 -0300,
different/3c.png,right,different,0,27,27,20,63.35748900001636,,,,,,,63.317856699984986,63.35748900001636,63.35748900001636,63.35748900001636,63.35748900001636,63.35748900001636,63.59847510000691,right,1,0.2336727000074461,None,63.59884519997286,63.62427009997191,63.62427009997191,63.62427009997191,63.62427009997191,64.61138379998738,,,,,,,,629366,001,2024-03-27_12h32.28.160,glasgow_face_matching,2023.2.3,74.94864144065349,2024-03-27 12h32.41.477002 -0300,
same/89a.png,left,same,0,28,28,18,64.66470429999754,,,,,,,64.6116228000028,64.66470429999754,64.66470429999754,64.66470429999754,64.66470429999754,64.66470429999754,64.89222869998775,left,1,0.2146167000173591,None,64.89260149997426,64.91809459996875,64.91809459996875,64.91809459996875,64.91809459996875,65.90521619998617,,,,,,,,629366,001,2024-03-27_12h32.28.160,glasgow_face_matching,2023.2.3,74.94864144065349,2024-03-27 12h32.41.477002 -0300,
different/29b.png,right,different,0,29,29,34,65.94511410000268,,,,,,,65.90548580000177,65.94511410000268,65.94511410000268,65.94511410000268,65.94511410000268,65.94511410000268,66.15954209998017,left,0,0.20604020002065226,None,66.15991990000475,66.18523679999635,66.18523679999635,66.18523679999635,66.18523679999635,67.17237549996935,,,,,,,,629366,001,2024-03-27_12h32.28.160,glasgow_face_matching,2023.2.3,74.94864144065349,2024-03-27 12h32.41.477002 -0300,
same/75c.png,left,same,0,30,30,10,67.2122670999961,,,,,,,67.17261710000457,67.2122670999961,67.2122670999961,67.2122670999961,67.2122670999961,67.2122670999961,67.38647739996668,right,0,0.17057959997327998,None,67.38679509999929,67.41234599996824,67.41234599996824,67.41234599996824,67.41234599996824,68.39945520000765,,,,,,,,629366,001,2024-03-27_12h32.28.160,glasgow_face_matching,2023.2.3,74.94864144065349,2024-03-27 12h32.41.477002 -0300,
different/28b.png,right,different,0,31,31,33,68.439412000007,,,,,,,68.39971879997756,68.439412000007,68.439412000007,68.439412000007,68.439412000007,68.439412000007,68.68034540000372,left,0,0.23926740000024438,None,68.6807048000046,68.70615659997566,68.70615659997566,68.70615659997566,68.70615659997566,69.69358939997619,,,,,,,,629366,001,2024-03-27_12h32.28.160,glasgow_face_matching,2023.2.3,74.94864144065349,2024-03-27 12h32.41.477002 -0300,
different/31b.png,right,different,0,32,32,35,69.74657299998216,,,,,,,69.69411169999512,69.74657299998216,69.74657299998216,69.74657299998216,69.74657299998216,69.74657299998216,70.02772080001887,left,0,0.27618069999152794,None,70.02816280000843,70.05331940000178,70.05331940000178,70.05331940000178,70.05331940000178,71.04048209998291,,,,,,,,629366,001,2024-03-27_12h32.28.160,glasgow_face_matching,2023.2.3,74.94864144065349,2024-03-27 12h32.41.477002 -0300,
same/58a.png,left,same,0,33,33,3,71.08041479997337,,,,,,,71.04076780000469,71.08041479997337,71.08041479997337,71.08041479997337,71.08041479997337,71.08041479997337,71.40137859998504,left,1,0.31895829999120906,None,71.4017284999718,71.42724109999835,71.42724109999835,71.42724109999835,71.42724109999835,72.41433759999927,,,,,,,,629366,001,2024-03-27_12h32.28.160,glasgow_face_matching,2023.2.3,74.94864144065349,2024-03-27 12h32.41.477002 -0300,
different/11b.png,right,different,0,34,34,23,72.49422389996471,,,,,,,72.4145921000163,72.49422389996471,72.49422389996471,72.49422389996471,72.49422389996471,72.49422389996471,73.1486431999947,left,0,0.6412065000040457,None,73.14896999998018,73.17448919999879,73.17448919999879,73.17448919999879,73.17448919999879,74.161604599969,,,,,,,,629366,001,2024-03-27_12h32.28.160,glasgow_face_matching,2023.2.3,74.94864144065349,2024-03-27 12h32.41.477002 -0300,
different/25a.png,right,different,0,35,35,30,74.20154719997663,,,,,,,74.16184229997452,74.20154719997663,74.20154719997663,74.20154719997663,74.20154719997663,74.20154719997663,74.482471299998,left,0,0.2770689000026323,None,74.48278479999863,74.50836629996775,74.50836629996775,74.50836629996775,74.50836629996775,75.4954502999899,,,,,,,,629366,001,2024-03-27_12h32.28.160,glasgow_face_matching,2023.2.3,74.94864144065349,2024-03-27 12h32.41.477002 -0300,
different/21a.png,right,different,0,36,36,27,75.53539699997054,,,,,,,75.49567480001133,75.53539699997054,75.53539699997054,75.53539699997054,75.53539699997054,75.53539699997054,75.77630879997741,right,1,0.23201789997983724,None,75.77664029999869,75.80216399999335,75.80216399999335,75.80216399999335,75.80216399999335,76.78926409996348,,,,,,,,629366,001,2024-03-27_12h32.28.160,glasgow_face_matching,2023.2.3,74.94864144065349,2024-03-27 12h32.41.477002 -0300,
same/81b.png,left,same,0,37,37,14,76.82919790002052,,,,,,,76.78952300001401,76.82919790002052,76.82919790002052,76.82919790002052,76.82919790002052,76.82919790002052,77.09670599998208,left,1,0.25786700000753626,None,77.09703060000902,77.12266180000734,77.12266180000734,77.12266180000734,77.12266180000734,78.1098050000146,,,,,,,,629366,001,2024-03-27_12h32.28.160,glasgow_face_matching,2023.2.3,74.94864144065349,2024-03-27 12h32.41.477002 -0300,
same/74a.png,left,same,0,38,38,9,78.14965719997417,,,,,,,78.1100803000154,78.14965719997417,78.14965719997417,78.14965719997417,78.14965719997417,78.14965719997417,78.80398279998917,left,1,0.6417855999898165,None,78.80430159997195,78.82994819997111,78.82994819997111,78.82994819997111,78.82994819997111,79.81707980000647,,,,,,,,629366,001,2024-03-27_12h32.28.160,glasgow_face_matching,2023.2.3,74.94864144065349,2024-03-27 12h32.41.477002 -0300,
same/78a.png,left,same,0,39,39,12,79.85703239997383,,,,,,,79.81731579999905,79.85703239997383,79.85703239997383,79.85703239997383,79.85703239997383,79.85703239997383,83.07241989998147,left,1,3.2057686999905854,None,83.07279050000943,83.09823689999757,83.09823689999757,83.09823689999757,83.09823689999757,84.08532519999426,,,,,,,,629366,001,2024-03-27_12h32.28.160,glasgow_face_matching,2023.2.3,74.94864144065349,2024-03-27 12h32.41.477002 -0300,
,,,,,,,,,,,,,,,,,,,,,,,,,,,,,,,,,,,84.08537699998124,84.09857959998772,84.09857959998772,,,,,,,,
