key_resp.keys,key_resp.rt,correct,response.x,response.y,response.leftButton,response.midButton,response.rightButton,response.time,response.clicked_name,trials.thisRepN,trials.thisTrialN,trials.thisN,trials.thisIndex,trials.ran,reward_green,reward_blue,green_pos,pg,pb,corrAns,corrAmount,cash_green,cash_blue,cash_corr,cash_size,cashsize_h,cashsize_v,auditory_stim_green_path,auditory_stim_blue_path,audio_corr,ITI,ITI_s,participant,age,gender,years of education,date,expName,psychopyVersion,OS,frameRate,outerLoop.thisRepN,outerLoop.thisTrialN,outerLoop.thisN,outerLoop.thisIndex,outerLoop.ran,thisCond
space,1.32322,1,[-0.3081198106010449],[-0.020207997279468412],[1],[0],[0],[12.760329999990063],"[""blue""]",0,0,0,0,1,20,80,right,0.4,-0.4,images/blue_box.png,80,Reward1.png,Reward4.png,Rewardnull.png,0,0,0,auditory_stim/coin1.wav,auditory_stim/coin4.wav,auditory_stim/silence_short.wav,954,1,146989,20,female,0,2021-03-25_00h06.04.105,rl,2020.2.10,Linux x86_64,60,,,,,,
,,1,[-0.3796887978199634],[-0.04639664048957531],[1],[0],[0],[15.197115000002668],"[""green""]",0,1,1,1,1,43,57,left,-0.4,0.4,images/green_box.png,43,Reward3.png,Reward3.png,Rewardnull.png,0,0,0,auditory_stim/coin3.wav,auditory_stim/coin3.wav,auditory_stim/silence_short.wav,813,0.8,146989,20,female,0,2021-03-25_00h06.04.105,rl,2020.2.10,Linux x86_64,60,,,,,,
,,0,[-0.30979870060008186],[-0.0679886028836431],[1],[0],[0],[6.092655000000377],"[""green""]",0,2,2,2,1,99,1,left,-0.4,0.4,images/blue_box.png,1,Reward5.png,Reward1.png,Rewardnull.png,0,0,0,auditory_stim/coin5.wav,auditory_stim/coin1.wav,auditory_stim/silence_short.wav,1202,1.2,146989,20,female,0,2021-03-25_00h06.04.105,rl,2020.2.10,Linux x86_64,60,,,,,,
,,1,"[0.5531361349191063,0.4147610657020416]","[-0.03092930680614407,-0.03289625641010208]","[1,1]","[0,0]","[0,0]","[5.5552650000026915,6.324479999995674]","[""blue""]",0,3,3,3,1,24,76,left,-0.4,0.4,images/blue_box.png,76,Reward2.png,Reward4.png,Rewardnull.png,0,0,0,auditory_stim/coin2.wav,auditory_stim/coin4.wav,auditory_stim/silence_short.wav,1082,1.1,146989,20,female,0,2021-03-25_00h06.04.105,rl,2020.2.10,Linux x86_64,60,,,,,,
,,1,[-0.29147555170514733],[-0.04027102430722747],[1],[0],[0],[11.2060899999924],"[""green""]",0,4,4,4,1,86,14,left,-0.4,0.4,images/green_box.png,86,Reward5.png,Reward1.png,Rewardnull.png,0,0,0,auditory_stim/coin5.wav,auditory_stim/coin1.wav,auditory_stim/silence_short.wav,1006,1,146989,20,female,0,2021-03-25_00h06.04.105,rl,2020.2.10,Linux x86_64,60,,,,,,
,,1,[-0.29147555170514733],[-0.04027102430722747],[1],[0],[0],[4.930449999999837],"[""blue""]",0,5,5,5,1,75,25,right,0.4,-0.4,images/blue_box.png,25,Reward4.png,Reward2.png,Rewardnull.png,0,0,0,auditory_stim/coin4.wav,auditory_stim/coin2.wav,auditory_stim/silence_short.wav,830,0.8,146989,20,female,0,2021-03-25_00h06.04.105,rl,2020.2.10,Linux x86_64,60,,,,,,
,,1,[-0.29147555170514733],[-0.04027102430722747],[1],[0],[0],[13.531724999993457],"[""green""]",0,6,6,6,1,91,9,left,-0.4,0.4,images/green_box.png,91,Reward5.png,Reward1.png,Rewardnull.png,0,0,0,auditory_stim/coin5.wav,auditory_stim/coin1.wav,auditory_stim/silence_short.wav,1228,1.2,146989,20,female,0,2021-03-25_00h06.04.105,rl,2020.2.10,Linux x86_64,60,,,,,,
,,0,[-0.29147555170514733],[-0.04027102430722747],[1],[0],[0],[4.788384999992559],"[""green""]",0,7,7,7,1,96,4,left,-0.4,0.4,images/blue_box.png,4,Reward5.png,Reward1.png,Rewardnull.png,0,0,0,auditory_stim/coin5.wav,auditory_stim/coin1.wav,auditory_stim/silence_short.wav,834,0.8,146989,20,female,0,2021-03-25_00h06.04.105,rl,2020.2.10,Linux x86_64,60,,,,,,
,,1,[-0.29147555170514733],[-0.04027102430722747],[1],[0],[0],[2.3427300000039395],"[""blue""]",0,8,8,8,1,36,64,right,0.4,-0.4,images/blue_box.png,64,Reward2.png,Reward4.png,Rewardnull.png,0,0,0,auditory_stim/coin2.wav,auditory_stim/coin4.wav,auditory_stim/silence_short.wav,1134,1.1,146989,20,female,0,2021-03-25_00h06.04.105,rl,2020.2.10,Linux x86_64,60,,,,,,
,,0,[-0.29147555170514733],[-0.04027102430722747],[1],[0],[0],[3.6739749999978812],"[""green""]",0,9,9,9,1,11,89,left,-0.4,0.4,images/blue_box.png,89,Reward1.png,Reward5.png,Rewardnull.png,0,0,0,auditory_stim/coin1.wav,auditory_stim/coin5.wav,auditory_stim/silence_short.wav,795,0.8,146989,20,female,0,2021-03-25_00h06.04.105,rl,2020.2.10,Linux x86_64,60,,,,,,
,,0,[-0.2608334110771379],[-0.10539247956591873],[1],[0],[0],[38.19125500001246],"[""green""]",0,10,10,10,1,100,0,left,-0.4,0.4,images/blue_box.png,0,Reward5.png,Rewardnull.png,Rewardnull.png,0,0,0,auditory_stim/coin5.wav,auditory_stim/coin1.wav,auditory_stim/silence_short.wav,788,0.8,146989,20,female,0,2021-03-25_00h06.04.105,rl,2020.2.10,Linux x86_64,60,,,,,,
,,1,[-0.2608334110771379],[-0.10539247956591873],[1],[0],[0],[0.9822150000109104],"[""blue""]",0,11,11,11,1,35,65,right,0.4,-0.4,images/blue_box.png,65,Reward2.png,Reward4.png,Rewardnull.png,0,0,0,auditory_stim/coin2.wav,auditory_stim/coin4.wav,auditory_stim/silence_short.wav,1225,1.2,146989,20,female,0,2021-03-25_00h06.04.105,rl,2020.2.10,Linux x86_64,60,,,,,,
,,0,[0.4033772096795551],[-0.04899472558443278],[1],[0],[0],[4.362244999996619],"[""green""]",0,12,12,12,1,97,3,right,0.4,-0.4,images/blue_box.png,3,Reward5.png,Reward1.png,Rewardnull.png,0,0,0,auditory_stim/coin5.wav,auditory_stim/coin1.wav,auditory_stim/silence_short.wav,1107,1.1,146989,20,female,0,2021-03-25_00h06.04.105,rl,2020.2.10,Linux x86_64,60,,,,,,
,,0,[-0.4038943627214946],[0.06934463665555181],[1],[0],[0],[3.7431399999913992],"[""green""]",0,13,13,13,1,90,10,left,-0.4,0.4,images/blue_box.png,10,Reward5.png,Reward1.png,Rewardnull.png,0,0,0,auditory_stim/coin5.wav,auditory_stim/coin1.wav,auditory_stim/silence_short.wav,998,1,146989,20,female,0,2021-03-25_00h06.04.105,rl,2020.2.10,Linux x86_64,60,,,,,,
,,1,[-0.4038943627214946],[0.06934463665555181],[1],[0],[0],[1.3937449999939417],"[""green""]",0,14,14,14,1,44,56,left,-0.4,0.4,images/green_box.png,44,Reward3.png,Reward3.png,Rewardnull.png,0,0,0,auditory_stim/coin3.wav,auditory_stim/coin3.wav,auditory_stim/silence_short.wav,1153,1.2,146989,20,female,0,2021-03-25_00h06.04.105,rl,2020.2.10,Linux x86_64,60,,,,,,
,,1,[0.3922663660740081],[0.05036674699357184],[1],[0],[0],[3.842934999993304],"[""blue""]",0,15,15,15,1,30,70,left,-0.4,0.4,images/blue_box.png,70,Reward2.png,Reward4.png,Rewardnull.png,0,0,0,auditory_stim/coin2.wav,auditory_stim/coin4.wav,auditory_stim/silence_short.wav,1229,1.2,146989,20,female,0,2021-03-25_00h06.04.105,rl,2020.2.10,Linux x86_64,60,,,,,,
,,0,[-0.26227446146114214],[-0.04085208087562596],[1],[0],[0],[2.9289350000035483],"[""green""]",0,16,16,16,1,69,31,left,-0.4,0.4,images/blue_box.png,31,Reward4.png,Reward2.png,Rewardnull.png,0,0,0,auditory_stim/coin4.wav,auditory_stim/coin2.wav,auditory_stim/silence_short.wav,1191,1.2,146989,20,female,0,2021-03-25_00h06.04.105,rl,2020.2.10,Linux x86_64,60,,,,,,
,,1,[0.43784411038015214],[-0.04173375204641756],[1],[0],[0],[5.557444999998552],"[""blue""]",0,17,17,17,1,19,81,left,-0.4,0.4,images/blue_box.png,81,Reward1.png,Reward5.png,Rewardnull.png,0,0,0,auditory_stim/coin1.wav,auditory_stim/coin5.wav,auditory_stim/silence_short.wav,1066,1.1,146989,20,female,0,2021-03-25_00h06.04.105,rl,2020.2.10,Linux x86_64,60,,,,,,
,,1,[-0.28076134257030044],[-0.06372977846025135],[1],[0],[0],[13.352620000005118],"[""blue""]",0,18,18,18,1,35,65,right,0.4,-0.4,images/blue_box.png,65,Reward2.png,Reward4.png,Rewardnull.png,0,0,0,auditory_stim/coin2.wav,auditory_stim/coin4.wav,auditory_stim/silence_short.wav,1124,1.1,146989,20,female,0,2021-03-25_00h06.04.105,rl,2020.2.10,Linux x86_64,60,,,,,,
,,0,[0.32972094237528893],[0.06688296372423921],[1],[0],[0],[4.835030000002007],"[""green""]",0,19,19,19,1,56,44,right,0.4,-0.4,images/blue_box.png,44,Reward3.png,Reward3.png,Rewardnull.png,0,0,0,auditory_stim/coin3.wav,auditory_stim/coin3.wav,auditory_stim/silence_short.wav,919,0.9,146989,20,female,0,2021-03-25_00h06.04.105,rl,2020.2.10,Linux x86_64,60,,,,,,
,,0,[0.29541344782237094],[-0.043591139312885205],[1],[0],[0],[1.6975249999959487],"[""blue""]",0,20,20,20,1,40,60,left,-0.4,0.4,images/green_box.png,40,Reward2.png,Reward3.png,Rewardnull.png,0,0,0,auditory_stim/coin2.wav,auditory_stim/coin3.wav,auditory_stim/silence_short.wav,1224,1.2,146989,20,female,0,2021-03-25_00h06.04.105,rl,2020.2.10,Linux x86_64,60,,,,,,
,,1,[-0.3235159522763386],[-0.085092365282526],[1],[0],[0],[1.3245849999948405],"[""blue""]",0,21,21,21,1,0,100,right,0.4,-0.4,images/blue_box.png,100,Rewardnull.png,Reward5.png,Rewardnull.png,0,0,0,auditory_stim/coin1.wav,auditory_stim/coin5.wav,auditory_stim/silence_short.wav,1003,1,146989,20,female,0,2021-03-25_00h06.04.105,rl,2020.2.10,Linux x86_64,60,,,,,,
,,0,[0.3819415499506452],[-0.07729147983074923],[1],[0],[0],[2.8624800000106916],"[""green""]",0,22,22,22,1,99,1,right,0.4,-0.4,images/blue_box.png,1,Reward5.png,Reward1.png,Rewardnull.png,0,0,0,auditory_stim/coin5.wav,auditory_stim/coin1.wav,auditory_stim/silence_short.wav,1150,1.2,146989,20,female,0,2021-03-25_00h06.04.105,rl,2020.2.10,Linux x86_64,60,,,,,,
,,1,[0.3819415499506452],[-0.07729147983074923],[1],[0],[0],[1.551130000007106],"[""green""]",0,23,23,23,1,93,7,right,0.4,-0.4,images/green_box.png,93,Reward5.png,Reward1.png,Rewardnull.png,0,0,0,auditory_stim/coin5.wav,auditory_stim/coin1.wav,auditory_stim/silence_short.wav,1186,1.2,146989,20,female,0,2021-03-25_00h06.04.105,rl,2020.2.10,Linux x86_64,60,,,,,,
,,0,[-0.33593369118054217],[-0.11695685482172091],[1],[0],[0],[2.588464999993448],"[""blue""]",0,24,24,24,1,31,69,right,0.4,-0.4,images/green_box.png,31,Reward2.png,Reward4.png,Rewardnull.png,0,0,0,auditory_stim/coin2.wav,auditory_stim/coin4.wav,auditory_stim/silence_short.wav,930,0.9,146989,20,female,0,2021-03-25_00h06.04.105,rl,2020.2.10,Linux x86_64,60,,,,,,
,,0,[0.3039255480185863],[-0.05183596383257897],[1],[0],[0],[2.293120000002091],"[""blue""]",0,25,25,25,1,49,51,left,-0.4,0.4,images/green_box.png,49,Reward3.png,Reward3.png,Rewardnull.png,0,0,0,auditory_stim/coin3.wav,auditory_stim/coin3.wav,auditory_stim/silence_short.wav,942,0.9,146989,20,female,0,2021-03-25_00h06.04.105,rl,2020.2.10,Linux x86_64,60,,,,,,
,,1,[-0.2742962242091198],[-0.030648488660439135],[1],[0],[0],[2.123909999994794],"[""green""]",0,26,26,26,1,64,36,left,-0.4,0.4,images/green_box.png,64,Reward4.png,Reward2.png,Rewardnull.png,0,0,0,auditory_stim/coin4.wav,auditory_stim/coin2.wav,auditory_stim/silence_short.wav,848,0.8,146989,20,female,0,2021-03-25_00h06.04.105,rl,2020.2.10,Linux x86_64,60,,,,,,
,,0,[0.34065074950043334],[0.01868921876504719],[1],[0],[0],[3.046524999997928],"[""green""]",0,27,27,27,1,76,24,right,0.4,-0.4,images/blue_box.png,24,Reward4.png,Reward2.png,Rewardnull.png,0,0,0,auditory_stim/coin4.wav,auditory_stim/coin2.wav,auditory_stim/silence_short.wav,1038,1,146989,20,female,0,2021-03-25_00h06.04.105,rl,2020.2.10,Linux x86_64,60,,,,,,
,,1,[-0.3171200980023353],[-0.07312905145536402],[1],[0],[0],[1.6313200000004144],"[""blue""]",0,28,28,28,1,23,77,right,0.4,-0.4,images/blue_box.png,77,Reward2.png,Reward4.png,Rewardnull.png,0,0,0,auditory_stim/coin2.wav,auditory_stim/coin4.wav,auditory_stim/silence_short.wav,943,0.9,146989,20,female,0,2021-03-25_00h06.04.105,rl,2020.2.10,Linux x86_64,60,,,,,,
,,1,[0.34289221624012906],[-0.03976628519537269],[1],[0],[0],[4.969364999997197],"[""green""]",0,29,29,29,1,65,35,right,0.4,-0.4,images/green_box.png,65,Reward4.png,Reward2.png,Rewardnull.png,0,0,0,auditory_stim/coin4.wav,auditory_stim/coin2.wav,auditory_stim/silence_short.wav,835,0.8,146989,20,female,0,2021-03-25_00h06.04.105,rl,2020.2.10,Linux x86_64,60,,,,,,
,,1,[0.34289221624012906],[-0.03976628519537269],[1],[0],[0],[3.85964999999851],"[""green""]",0,30,30,30,1,88,12,right,0.4,-0.4,images/green_box.png,88,Reward5.png,Reward1.png,Rewardnull.png,0,0,0,auditory_stim/coin5.wav,auditory_stim/coin1.wav,auditory_stim/silence_short.wav,1242,1.2,146989,20,female,0,2021-03-25_00h06.04.105,rl,2020.2.10,Linux x86_64,60,,,,,,
,,0,[-0.3089697886321504],[0.005899344093075886],[1],[0],[0],[2.7917250000027707],"[""green""]",0,31,31,31,1,68,32,left,-0.4,0.4,images/blue_box.png,32,Reward4.png,Reward2.png,Rewardnull.png,0,0,0,auditory_stim/coin4.wav,auditory_stim/coin2.wav,auditory_stim/silence_short.wav,1234,1.2,146989,20,female,0,2021-03-25_00h06.04.105,rl,2020.2.10,Linux x86_64,60,,,,,,
,,1,[-0.3089697886321504],[0.005899344093075886],[1],[0],[0],[1.179389999990235],"[""blue""]",0,32,32,32,1,3,97,right,0.4,-0.4,images/blue_box.png,97,Reward1.png,Reward5.png,Rewardnull.png,0,0,0,auditory_stim/coin1.wav,auditory_stim/coin5.wav,auditory_stim/silence_short.wav,1071,1.1,146989,20,female,0,2021-03-25_00h06.04.105,rl,2020.2.10,Linux x86_64,60,,,,,,
,,1,[0.27703509455652925],[-0.021784942579930664],[1],[0],[0],[3.1321200000093086],"[""blue""]",0,33,33,33,1,10,90,left,-0.4,0.4,images/blue_box.png,90,Reward1.png,Reward5.png,Rewardnull.png,0,0,0,auditory_stim/coin1.wav,auditory_stim/coin5.wav,auditory_stim/silence_short.wav,949,0.9,146989,20,female,0,2021-03-25_00h06.04.105,rl,2020.2.10,Linux x86_64,60,,,,,,
,,1,[0.27703509455652925],[-0.021784942579930664],[1],[0],[0],[3.5095000000001164],"[""blue""]",0,34,34,34,1,49,51,left,-0.4,0.4,images/blue_box.png,51,Reward3.png,Reward3.png,Rewardnull.png,0,0,0,auditory_stim/coin3.wav,auditory_stim/coin3.wav,auditory_stim/silence_short.wav,981,1,146989,20,female,0,2021-03-25_00h06.04.105,rl,2020.2.10,Linux x86_64,60,,,,,,
,,1,[0.27703509455652925],[-0.021784942579930664],[1],[0],[0],[1.2935549999965588],"[""blue""]",0,35,35,35,1,19,81,left,-0.4,0.4,images/blue_box.png,81,Reward1.png,Reward5.png,Rewardnull.png,0,0,0,auditory_stim/coin1.wav,auditory_stim/coin5.wav,auditory_stim/silence_short.wav,1020,1,146989,20,female,0,2021-03-25_00h06.04.105,rl,2020.2.10,Linux x86_64,60,,,,,,
,,1,[-0.34685484617259726],[-0.05066722052857762],[1],[0],[0],[2.0616449999943143],"[""blue""]",0,36,36,36,1,23,77,right,0.4,-0.4,images/blue_box.png,77,Reward2.png,Reward4.png,Rewardnull.png,0,0,0,auditory_stim/coin2.wav,auditory_stim/coin4.wav,auditory_stim/silence_short.wav,987,1,146989,20,female,0,2021-03-25_00h06.04.105,rl,2020.2.10,Linux x86_64,60,,,,,,
,,0,[-0.34685484617259726],[-0.05066722052857762],[1],[0],[0],[1.6252999999996973],"[""green""]",0,37,37,37,1,73,27,left,-0.4,0.4,images/blue_box.png,27,Reward4.png,Reward2.png,Rewardnull.png,0,0,0,auditory_stim/coin4.wav,auditory_stim/coin2.wav,auditory_stim/silence_short.wav,797,0.8,146989,20,female,0,2021-03-25_00h06.04.105,rl,2020.2.10,Linux x86_64,60,,,,,,
,,0,[0.4495435811705508],[0.12258760660932685],[1],[0],[0],[1.4292900000000373],"[""blue""]",0,38,38,38,1,32,68,left,-0.4,0.4,images/green_box.png,32,Reward2.png,Reward4.png,Rewardnull.png,0,0,0,auditory_stim/coin2.wav,auditory_stim/coin4.wav,auditory_stim/silence_short.wav,796,0.8,146989,20,female,0,2021-03-25_00h06.04.105,rl,2020.2.10,Linux x86_64,60,,,,,,
,,0,[-0.3578833534464079],[-0.06319715502816833],[1],[0],[0],[1.5234150000032969],"[""green""]",0,39,39,39,1,60,40,left,-0.4,0.4,images/blue_box.png,40,Reward3.png,Reward2.png,Rewardnull.png,0,0,0,auditory_stim/coin3.wav,auditory_stim/coin2.wav,auditory_stim/silence_short.wav,822,0.8,146989,20,female,0,2021-03-25_00h06.04.105,rl,2020.2.10,Linux x86_64,60,,,,,,
,,0,[-0.35854961471675173],[-0.06319715502816833],[1],[0],[0],[4.741305000003194],"[""green""]",0,40,40,40,1,100,0,left,-0.4,0.4,images/blue_box.png,0,Reward5.png,Rewardnull.png,Rewardnull.png,0,0,0,auditory_stim/coin5.wav,auditory_stim/coin1.wav,auditory_stim/silence_short.wav,1190,1.2,146989,20,female,0,2021-03-25_00h06.04.105,rl,2020.2.10,Linux x86_64,60,,,,,,
,,0,[-0.35854961471675173],[-0.06319715502816833],[1],[0],[0],[44.17193500000576],"[""blue""]",0,41,41,41,1,50,50,right,0.4,-0.4,images/green_box.png,50,Reward3.png,Reward3.png,Rewardnull.png,0,0,0,auditory_stim/coin3.wav,auditory_stim/coin3.wav,auditory_stim/silence_short.wav,1125,1.1,146989,20,female,0,2021-03-25_00h06.04.105,rl,2020.2.10,Linux x86_64,60,,,,,,
,,1,[0.4916521962875578],[0.023409756747159092],[1],[0],[0],[5.373865000001388],"[""blue""]",0,42,42,42,1,27,73,left,-0.4,0.4,images/blue_box.png,73,Reward2.png,Reward4.png,Rewardnull.png,0,0,0,auditory_stim/coin2.wav,auditory_stim/coin4.wav,auditory_stim/silence_short.wav,760,0.8,146989,20,female,0,2021-03-25_00h06.04.105,rl,2020.2.10,Linux x86_64,60,,,,,,
,,1,[0.4916521962875578],[0.023409756747159092],[1],[0],[0],[16.585500000001048],"[""blue""]",0,43,43,43,1,33,67,left,-0.4,0.4,images/blue_box.png,67,Reward2.png,Reward4.png,Rewardnull.png,0,0,0,auditory_stim/coin2.wav,auditory_stim/coin4.wav,auditory_stim/silence_short.wav,913,0.9,146989,20,female,0,2021-03-25_00h06.04.105,rl,2020.2.10,Linux x86_64,60,,,,,,
,,0,[0.4916521962875578],[0.023409756747159092],[1],[0],[0],[9.47126500000013],"[""green""]",0,44,44,44,1,51,49,right,0.4,-0.4,images/blue_box.png,49,Reward3.png,Reward3.png,Rewardnull.png,0,0,0,auditory_stim/coin3.wav,auditory_stim/coin3.wav,auditory_stim/silence_short.wav,1170,1.2,146989,20,female,0,2021-03-25_00h06.04.105,rl,2020.2.10,Linux x86_64,60,,,,,,
,,0,[0.4916521962875578],[0.023409756747159092],[1],[0],[0],[0.02585999999428168],"[""green""]",0,45,45,45,1,75,25,right,0.4,-0.4,images/blue_box.png,25,Reward4.png,Reward2.png,Rewardnull.png,0,0,0,auditory_stim/coin4.wav,auditory_stim/coin2.wav,auditory_stim/silence_short.wav,1211,1.2,146989,20,female,0,2021-03-25_00h06.04.105,rl,2020.2.10,Linux x86_64,60,,,,,,
,,1,[0.4916521962875578],[0.023409756747159092],[1],[0],[0],[0.8278700000082608],"[""blue""]",0,46,46,46,1,57,43,left,-0.4,0.4,images/blue_box.png,43,Reward3.png,Reward3.png,Rewardnull.png,0,0,0,auditory_stim/coin3.wav,auditory_stim/coin3.wav,auditory_stim/silence_short.wav,1047,1,146989,20,female,0,2021-03-25_00h06.04.105,rl,2020.2.10,Linux x86_64,60,,,,,,
,,1,[0.4916521962875578],[0.023409756747159092],[1],[0],[0],[0.14340999998967163],"[""blue""]",0,47,47,47,1,73,27,left,-0.4,0.4,images/blue_box.png,27,Reward4.png,Reward2.png,Rewardnull.png,0,0,0,auditory_stim/coin4.wav,auditory_stim/coin2.wav,auditory_stim/silence_short.wav,1054,1.1,146989,20,female,0,2021-03-25_00h06.04.105,rl,2020.2.10,Linux x86_64,60,,,,,,
,,0,[-0.4163524468984736],[-0.11373163114527157],[1],[0],[0],[0.9943449999991572],"[""green""]",0,48,48,48,1,36,64,left,-0.4,0.4,images/blue_box.png,64,Reward2.png,Reward4.png,Rewardnull.png,0,0,0,auditory_stim/coin2.wav,auditory_stim/coin4.wav,auditory_stim/silence_short.wav,766,0.8,146989,20,female,0,2021-03-25_00h06.04.105,rl,2020.2.10,Linux x86_64,60,,,,,,
,,1,[0.4163523998760112],[-0.06484731430265311],[1],[0],[0],[0.7789349999948172],"[""green""]",0,49,49,49,1,61,39,right,0.4,-0.4,images/green_box.png,61,Reward4.png,Reward2.png,Rewardnull.png,0,0,0,auditory_stim/coin4.wav,auditory_stim/coin2.wav,auditory_stim/silence_short.wav,1073,1.1,146989,20,female,0,2021-03-25_00h06.04.105,rl,2020.2.10,Linux x86_64,60,,,,,,
,,0,[-0.38168132764349],[0.0019215729277012711],[1],[0],[0],[1.1649599999946076],"[""blue""]",0,50,50,50,1,12,88,right,0.4,-0.4,images/green_box.png,12,Reward1.png,Reward5.png,Rewardnull.png,0,0,0,auditory_stim/coin1.wav,auditory_stim/coin5.wav,auditory_stim/silence_short.wav,776,0.8,146989,20,female,0,2021-03-25_00h06.04.105,rl,2020.2.10,Linux x86_64,60,,,,,,
,,1,[0.4516213156960227],[-0.12446234516443568],[1],[0],[0],[0.8125600000057602],"[""blue""]",0,51,51,51,1,67,33,left,-0.4,0.4,images/blue_box.png,33,Reward4.png,Reward2.png,Rewardnull.png,0,0,0,auditory_stim/coin4.wav,auditory_stim/coin2.wav,auditory_stim/silence_short.wav,900,0.9,146989,20,female,0,2021-03-25_00h06.04.105,rl,2020.2.10,Linux x86_64,60,,,,,,
,,0,[0.4008101594099095],[-0.08630874234098132],[1],[0],[0],[0.7966449999948964],"[""green""]",0,52,52,52,1,92,8,right,0.4,-0.4,images/blue_box.png,8,Reward5.png,Reward1.png,Rewardnull.png,0,0,0,auditory_stim/coin5.wav,auditory_stim/coin1.wav,auditory_stim/silence_short.wav,1168,1.2,146989,20,female,0,2021-03-25_00h06.04.105,rl,2020.2.10,Linux x86_64,60,,,,,,
,,1,[0.4336879830147342],[-0.07855878221602947],[1],[0],[0],[0.912609999999404],"[""blue""]",0,53,53,53,1,52,48,left,-0.4,0.4,images/blue_box.png,48,Reward3.png,Reward3.png,Rewardnull.png,0,0,0,auditory_stim/coin3.wav,auditory_stim/coin3.wav,auditory_stim/silence_short.wav,1164,1.2,146989,20,female,0,2021-03-25_00h06.04.105,rl,2020.2.10,Linux x86_64,60,,,,,,
,,0,[0.4085812796429603],[-0.10777012335684708],[1],[0],[0],[1.7095599999884143],"[""blue""]",0,54,54,54,1,74,26,left,-0.4,0.4,images/green_box.png,74,Reward4.png,Reward2.png,Rewardnull.png,0,0,0,auditory_stim/coin4.wav,auditory_stim/coin2.wav,auditory_stim/silence_short.wav,892,0.9,146989,20,female,0,2021-03-25_00h06.04.105,rl,2020.2.10,Linux x86_64,60,,,,,,
,,0,[0.4283079549968702],[-0.11015472647221687],[1],[0],[0],[1.4100449999968987],"[""green""]",0,55,55,55,1,42,58,right,0.4,-0.4,images/blue_box.png,58,Reward3.png,Reward3.png,Rewardnull.png,0,0,0,auditory_stim/coin3.wav,auditory_stim/coin3.wav,auditory_stim/silence_short.wav,944,0.9,146989,20,female,0,2021-03-25_00h06.04.105,rl,2020.2.10,Linux x86_64,60,,,,,,
,,0,[0.4318946403421129],[-0.12327004360675077],[1],[0],[0],[0.4793249999929685],"[""green""]",0,56,56,56,1,61,39,right,0.4,-0.4,images/blue_box.png,39,Reward4.png,Reward2.png,Rewardnull.png,0,0,0,auditory_stim/coin4.wav,auditory_stim/coin2.wav,auditory_stim/silence_short.wav,779,0.8,146989,20,female,0,2021-03-25_00h06.04.105,rl,2020.2.10,Linux x86_64,60,,,,,,
,,1,[0.42711236186681434],[-0.08928949623519357],[1],[0],[0],[1.4043950000050245],"[""blue""]",0,57,57,57,1,41,59,left,-0.4,0.4,images/blue_box.png,59,Reward3.png,Reward3.png,Rewardnull.png,0,0,0,auditory_stim/coin3.wav,auditory_stim/coin3.wav,auditory_stim/silence_short.wav,1188,1.2,146989,20,female,0,2021-03-25_00h06.04.105,rl,2020.2.10,Linux x86_64,60,,,,,,
,,0,[-0.3709213186302244],[0.015036890062235169],[1],[0],[0],[1.4440150000009453],"[""green""]",0,58,58,58,1,99,1,left,-0.4,0.4,images/blue_box.png,1,Reward5.png,Reward1.png,Rewardnull.png,0,0,0,auditory_stim/coin5.wav,auditory_stim/coin1.wav,auditory_stim/silence_short.wav,1162,1.2,146989,20,female,0,2021-03-25_00h06.04.105,rl,2020.2.10,Linux x86_64,60,,,,,,
,,1,[-0.3852679659662702],[-0.020136005889469375],[1],[0],[0],[2.1290900000021793],"[""blue""]",0,59,59,59,1,4,96,right,0.4,-0.4,images/blue_box.png,96,Reward1.png,Reward5.png,Rewardnull.png,0,0,0,auditory_stim/coin1.wav,auditory_stim/coin5.wav,auditory_stim/silence_short.wav,1244,1.2,146989,20,female,0,2021-03-25_00h06.04.105,rl,2020.2.10,Linux x86_64,60,,,,,,
,,1,[0.4247212696516275],[-0.11730853581832627],[1],[0],[0],[4.2595799999980954],"[""blue""]",0,60,60,60,1,15,85,left,-0.4,0.4,images/blue_box.png,85,Reward1.png,Reward5.png,Rewardnull.png,0,0,0,auditory_stim/coin1.wav,auditory_stim/coin5.wav,auditory_stim/silence_short.wav,1205,1.2,146989,20,female,0,2021-03-25_00h06.04.105,rl,2020.2.10,Linux x86_64,60,,,,,,
,,1,[-0.34043463426304893],[0.009671533052653121],[1],[0],[0],[2.1628300000011222],"[""blue""]",0,61,61,61,1,1,99,right,0.4,-0.4,images/blue_box.png,99,Reward1.png,Reward5.png,Rewardnull.png,0,0,0,auditory_stim/coin1.wav,auditory_stim/coin5.wav,auditory_stim/silence_short.wav,823,0.8,146989,20,female,0,2021-03-25_00h06.04.105,rl,2020.2.10,Linux x86_64,60,,,,,,
,,0,[-0.3948324288719424],[0.026363754860241718],[1],[0],[0],[1.630749999996624],"[""green""]",0,62,62,62,1,70,30,left,-0.4,0.4,images/blue_box.png,30,Reward4.png,Reward2.png,Rewardnull.png,0,0,0,auditory_stim/coin4.wav,auditory_stim/coin2.wav,auditory_stim/silence_short.wav,911,0.9,146989,20,female,0,2021-03-25_00h06.04.105,rl,2020.2.10,Linux x86_64,60,,,,,,
,,1,[0.41934133567868837],[-0.06842421897570782],[1],[0],[0],[0.7616600000037579],"[""blue""]",0,63,63,63,1,14,86,left,-0.4,0.4,images/blue_box.png,86,Reward1.png,Reward5.png,Rewardnull.png,0,0,0,auditory_stim/coin1.wav,auditory_stim/coin5.wav,auditory_stim/silence_short.wav,895,0.9,146989,20,female,0,2021-03-25_00h06.04.105,rl,2020.2.10,Linux x86_64,60,,,,,,
,,1,[0.41575465033344566],[-0.09703945636014541],[1],[0],[0],[0.9612000000051921],"[""green""]",0,64,64,64,1,86,14,right,0.4,-0.4,images/green_box.png,86,Reward5.png,Reward1.png,Rewardnull.png,0,0,0,auditory_stim/coin5.wav,auditory_stim/coin1.wav,auditory_stim/silence_short.wav,1000,1,146989,20,female,0,2021-03-25_00h06.04.105,rl,2020.2.10,Linux x86_64,60,,,,,,
,,0,[0.4456435381355932],[-0.12565464672212057],[1],[0],[0],[0.846239999998943],"[""blue""]",0,65,65,65,1,43,57,left,-0.4,0.4,images/green_box.png,43,Reward3.png,Reward3.png,Rewardnull.png,0,0,0,auditory_stim/coin3.wav,auditory_stim/coin3.wav,auditory_stim/silence_short.wav,757,0.8,146989,20,female,0,2021-03-25_00h06.04.105,rl,2020.2.10,Linux x86_64,60,,,,,,
,,0,[-0.3661390871773883],[-0.017751402774099576],[1],[0],[0],[1.5124700000014855],"[""green""]",0,66,66,66,1,57,43,left,-0.4,0.4,images/blue_box.png,43,Reward3.png,Reward3.png,Rewardnull.png,0,0,0,auditory_stim/coin3.wav,auditory_stim/coin3.wav,auditory_stim/silence_short.wav,1179,1.2,146989,20,female,0,2021-03-25_00h06.04.105,rl,2020.2.10,Linux x86_64,60,,,,,,
,,0,[0.38048573451343415],[-0.045770489379694725],[1],[0],[0],[0.5644849999953294],"[""green""]",0,67,67,67,1,9,91,right,0.4,-0.4,images/blue_box.png,91,Reward1.png,Reward5.png,Rewardnull.png,0,0,0,auditory_stim/coin1.wav,auditory_stim/coin5.wav,auditory_stim/silence_short.wav,1157,1.2,146989,20,female,0,2021-03-25_00h06.04.105,rl,2020.2.10,Linux x86_64,60,,,,,,
,,1,[0.3846701694012423],[-0.09048179779287846],[1],[0],[0],[0.31752000001142733],"[""blue""]",0,68,68,68,1,57,43,left,-0.4,0.4,images/blue_box.png,43,Reward3.png,Reward3.png,Rewardnull.png,0,0,0,auditory_stim/coin3.wav,auditory_stim/coin3.wav,auditory_stim/silence_short.wav,763,0.8,146989,20,female,0,2021-03-25_00h06.04.105,rl,2020.2.10,Linux x86_64,60,,,,,,
,,1,[0.3834745762711864],[-0.09227025012940582],[1],[0],[0],[0.9620549999963259],"[""blue""]",0,69,69,69,1,14,86,left,-0.4,0.4,images/blue_box.png,86,Reward1.png,Reward5.png,Rewardnull.png,0,0,0,auditory_stim/coin1.wav,auditory_stim/coin5.wav,auditory_stim/silence_short.wav,978,1,146989,20,female,0,2021-03-25_00h06.04.105,rl,2020.2.10,Linux x86_64,60,,,,,,
,,1,[0.3852679189438078],[-0.11015472647221687],[1],[0],[0],[1.1642850000062026],"[""blue""]",0,70,70,70,1,23,77,left,-0.4,0.4,images/blue_box.png,77,Reward2.png,Reward4.png,Rewardnull.png,0,0,0,auditory_stim/coin2.wav,auditory_stim/coin4.wav,auditory_stim/silence_short.wav,1154,1.2,146989,20,female,0,2021-03-25_00h06.04.105,rl,2020.2.10,Linux x86_64,60,,,,,,
,,0,[0.39543013139204547],[-0.06246271118728332],[1],[0],[0],[1.0284600000013597],"[""green""]",0,71,71,71,1,19,81,right,0.4,-0.4,images/blue_box.png,81,Reward1.png,Reward5.png,Rewardnull.png,0,0,0,auditory_stim/coin1.wav,auditory_stim/coin5.wav,auditory_stim/silence_short.wav,926,0.9,146989,20,female,0,2021-03-25_00h06.04.105,rl,2020.2.10,Linux x86_64,60,,,,,,
,,0,[0.40798353010039484],[-0.11134702802990178],[1],[0],[0],[0.5989750000007916],"[""green""]",0,72,72,72,1,18,82,right,0.4,-0.4,images/blue_box.png,82,Reward1.png,Reward5.png,Rewardnull.png,0,0,0,auditory_stim/coin1.wav,auditory_stim/coin5.wav,auditory_stim/silence_short.wav,1137,1.1,146989,20,female,0,2021-03-25_00h06.04.105,rl,2020.2.10,Linux x86_64,60,,,,,,
,,1,[0.4061901874277735],[-0.11194317880874423],[1],[0],[0],[0.3953849999961676],"[""green""]",0,73,73,73,1,14,86,right,0.4,-0.4,images/green_box.png,14,Reward1.png,Reward5.png,Rewardnull.png,0,0,0,auditory_stim/coin1.wav,auditory_stim/coin5.wav,auditory_stim/silence_short.wav,1221,1.2,146989,20,female,0,2021-03-25_00h06.04.105,rl,2020.2.10,Linux x86_64,60,,,,,,
,,0,[0.42950354812692604],[-0.10955857569337442],[1],[0],[0],[2.012170000001788],"[""green""]",0,74,74,74,1,17,83,right,0.4,-0.4,images/blue_box.png,83,Reward1.png,Reward5.png,Rewardnull.png,0,0,0,auditory_stim/coin1.wav,auditory_stim/coin5.wav,auditory_stim/silence_short.wav,785,0.8,146989,20,female,0,2021-03-25_00h06.04.105,rl,2020.2.10,Linux x86_64,60,,,,,,
,,1,[0.42890570453943566],[-0.08452029000445396],[1],[0],[0],[0.8962400000018533],"[""blue""]",0,75,75,75,1,13,87,left,-0.4,0.4,images/blue_box.png,87,Reward1.png,Reward5.png,Rewardnull.png,0,0,0,auditory_stim/coin1.wav,auditory_stim/coin5.wav,auditory_stim/silence_short.wav,770,0.8,146989,20,female,0,2021-03-25_00h06.04.105,rl,2020.2.10,Linux x86_64,60,,,,,,
,,1,[0.3966257245221013],[-0.06007810807191352],[1],[0],[0],[0.8094750000018394],"[""blue""]",0,76,76,76,1,14,86,left,-0.4,0.4,images/blue_box.png,86,Reward1.png,Reward5.png,Rewardnull.png,0,0,0,auditory_stim/coin1.wav,auditory_stim/coin5.wav,auditory_stim/silence_short.wav,1239,1.2,146989,20,female,0,2021-03-25_00h06.04.105,rl,2020.2.10,Linux x86_64,60,,,,,,
,,0,[-0.3434235230432637],[0.005498477600755971],[1],[0],[0],[1.4959300000045914],"[""blue""]",0,77,77,77,1,26,74,right,0.4,-0.4,images/green_box.png,26,Reward2.png,Reward4.png,Rewardnull.png,0,0,0,auditory_stim/coin2.wav,auditory_stim/coin4.wav,auditory_stim/silence_short.wav,1109,1.1,146989,20,female,0,2021-03-25_00h06.04.105,rl,2020.2.10,Linux x86_64,60,,,,,,
,,0,[0.4217324278938752],[-0.04875124327390697],[1],[0],[0],[0.844279999990249],"[""green""]",0,78,78,78,1,77,23,right,0.4,-0.4,images/blue_box.png,23,Reward4.png,Reward2.png,Rewardnull.png,0,0,0,auditory_stim/coin4.wav,auditory_stim/coin2.wav,auditory_stim/silence_short.wav,912,0.9,146989,20,female,0,2021-03-25_00h06.04.105,rl,2020.2.10,Linux x86_64,60,,,,,,
,,0,[0.4468390372207242],[-0.08928949623519357],[1],[0],[0],[0.9793399999907706],"[""green""]",0,79,79,79,1,81,19,right,0.4,-0.4,images/blue_box.png,19,Reward5.png,Reward1.png,Rewardnull.png,0,0,0,auditory_stim/coin5.wav,auditory_stim/coin1.wav,auditory_stim/silence_short.wav,799,0.8,146989,20,female,0,2021-03-25_00h06.04.105,rl,2020.2.10,Linux x86_64,60,,,,,,
,,1,[-0.36554129061236035],[-0.06723191741802292],[1],[0],[0],[2.1271150000102352],"[""blue""]",0,80,80,80,1,34,66,right,0.4,-0.4,images/blue_box.png,66,Reward2.png,Reward4.png,Rewardnull.png,0,0,0,auditory_stim/coin2.wav,auditory_stim/coin4.wav,auditory_stim/silence_short.wav,827,0.8,146989,20,female,0,2021-03-25_00h06.04.105,rl,2020.2.10,Linux x86_64,60,,,,,,
,,1,[0.4402635101177292],[-0.10180866259088502],[1],[0],[0],[1.068184999996447],"[""blue""]",0,81,81,81,1,30,70,left,-0.4,0.4,images/blue_box.png,70,Reward2.png,Reward4.png,Rewardnull.png,0,0,0,auditory_stim/coin2.wav,auditory_stim/coin4.wav,auditory_stim/silence_short.wav,1043,1,146989,20,female,0,2021-03-25_00h06.04.105,rl,2020.2.10,Linux x86_64,60,,,,,,
,,0,[0.43667682477248654],[-0.09286640090824827],[1],[0],[0],[3.5415499999944586],"[""green""]",0,82,82,82,1,100,0,right,0.4,-0.4,images/blue_box.png,0,Reward5.png,Rewardnull.png,Rewardnull.png,0,0,0,auditory_stim/coin5.wav,auditory_stim/coin1.wav,auditory_stim/silence_short.wav,1121,1.1,146989,20,female,0,2021-03-25_00h06.04.105,rl,2020.2.10,Linux x86_64,60,,,,,,
,,1,[-0.2908190240845291],[-0.03682822769705797],[1],[0],[0],[1.661210000005667],"[""blue""]",0,83,83,83,1,25,75,right,0.4,-0.4,images/blue_box.png,75,Reward2.png,Reward4.png,Rewardnull.png,0,0,0,auditory_stim/coin2.wav,auditory_stim/coin4.wav,auditory_stim/silence_short.wav,758,0.8,146989,20,female,0,2021-03-25_00h06.04.105,rl,2020.2.10,Linux x86_64,60,,,,,,
,,0,[0.44086125966029466],[-0.09942405947551522],[1],[0],[0],[0.6318449999962468],"[""blue""]",0,84,84,84,1,77,23,left,-0.4,0.4,images/green_box.png,77,Reward4.png,Reward2.png,Rewardnull.png,0,0,0,auditory_stim/coin4.wav,auditory_stim/coin2.wav,auditory_stim/silence_short.wav,1187,1.2,146989,20,female,0,2021-03-25_00h06.04.105,rl,2020.2.10,Linux x86_64,60,,,,,,
,,0,[-0.363747947939739],[-0.05352044950464657],[1],[0],[0],[1.1653899999946589],"[""green""]",0,85,85,85,1,97,3,left,-0.4,0.4,images/blue_box.png,3,Reward5.png,Reward1.png,Rewardnull.png,0,0,0,auditory_stim/coin5.wav,auditory_stim/coin1.wav,auditory_stim/silence_short.wav,914,0.9,146989,20,female,0,2021-03-25_00h06.04.105,rl,2020.2.10,Linux x86_64,60,,,,,,
,,0,[0.3721168647378178],[-0.08094338533139926],[1],[0],[0],[0.7122749999980442],"[""green""]",0,86,86,86,1,83,17,right,0.4,-0.4,images/blue_box.png,17,Reward5.png,Reward1.png,Rewardnull.png,0,0,0,auditory_stim/coin5.wav,auditory_stim/coin1.wav,auditory_stim/silence_short.wav,1129,1.1,146989,20,female,0,2021-03-25_00h06.04.105,rl,2020.2.10,Linux x86_64,60,,,,,,
,,1,[-0.3619546522895801],[-0.03861668003358532],[1],[0],[0],[1.3311549999925774],"[""blue""]",0,87,87,87,1,30,70,right,0.4,-0.4,images/blue_box.png,70,Reward2.png,Reward4.png,Rewardnull.png,0,0,0,auditory_stim/coin2.wav,auditory_stim/coin4.wav,auditory_stim/silence_short.wav,1159,1.2,146989,20,female,0,2021-03-25_00h06.04.105,rl,2020.2.10,Linux x86_64,60,,,,,,
,,0,[-0.3338590601375915],[-0.04338588626432492],[1],[0],[0],[1.6294399999896996],"[""green""]",0,88,88,88,1,73,27,left,-0.4,0.4,images/blue_box.png,27,Reward4.png,Reward2.png,Rewardnull.png,0,0,0,auditory_stim/coin4.wav,auditory_stim/coin2.wav,auditory_stim/silence_short.wav,831,0.8,146989,20,female,0,2021-03-25_00h06.04.105,rl,2020.2.10,Linux x86_64,60,,,,,,
,,0,[0.3840724198586768],[-0.026097513677893876],[1],[0],[0],[1.3101200000091922],"[""green""]",0,89,89,89,1,55,45,right,0.4,-0.4,images/blue_box.png,45,Reward3.png,Reward3.png,Rewardnull.png,0,0,0,auditory_stim/coin3.wav,auditory_stim/coin3.wav,auditory_stim/silence_short.wav,1210,1.2,146989,20,female,0,2021-03-25_00h06.04.105,rl,2020.2.10,Linux x86_64,60,,,,,,
,,1,[0.41695014941857667],[-0.09882790869667277],[1],[0],[0],[0.744539999999688],"[""green""]",0,90,90,90,1,86,14,right,0.4,-0.4,images/green_box.png,86,Reward5.png,Reward1.png,Rewardnull.png,0,0,0,auditory_stim/coin5.wav,auditory_stim/coin1.wav,auditory_stim/silence_short.wav,1195,1.2,146989,20,female,0,2021-03-25_00h06.04.105,rl,2020.2.10,Linux x86_64,60,,,,,,
,,0,[0.418743492091198],[-0.12565464672212057],[1],[0],[0],[1.227115000001504],"[""blue""]",0,91,91,91,1,68,32,left,-0.4,0.4,images/green_box.png,68,Reward4.png,Reward2.png,Rewardnull.png,0,0,0,auditory_stim/coin4.wav,auditory_stim/coin2.wav,auditory_stim/silence_short.wav,1017,1,146989,20,female,0,2021-03-25_00h06.04.105,rl,2020.2.10,Linux x86_64,60,,,,,,
,,0,[0.42890570453943566],[-0.09048179779287846],[1],[0],[0],[0.231965000013588],"[""green""]",0,92,92,92,1,20,80,right,0.4,-0.4,images/blue_box.png,80,Reward1.png,Reward4.png,Rewardnull.png,0,0,0,auditory_stim/coin1.wav,auditory_stim/coin4.wav,auditory_stim/silence_short.wav,1074,1.1,146989,20,female,0,2021-03-25_00h06.04.105,rl,2020.2.10,Linux x86_64,60,,,,,,
,,0,[0.4283079549968702],[-0.10121251181204256],[1],[0],[0],[0.36362000000372063],"[""blue""]",0,93,93,93,1,72,28,left,-0.4,0.4,images/green_box.png,72,Reward4.png,Reward2.png,Rewardnull.png,0,0,0,auditory_stim/coin4.wav,auditory_stim/coin2.wav,auditory_stim/silence_short.wav,1222,1.2,146989,20,female,0,2021-03-25_00h06.04.105,rl,2020.2.10,Linux x86_64,60,,,,,,
,,0,[],[],[],[],[],[],[],0,94,94,94,1,26,74,right,0.4,-0.4,images/blue_box.png,74,Reward2.png,Reward4.png,Rewardnull.png,0,0,0,auditory_stim/coin2.wav,auditory_stim/coin4.wav,auditory_stim/silence_short.wav,1090,1.1,146989,20,female,0,2021-03-25_00h06.04.105,rl,2020.2.10,Linux x86_64,60,,,,,,
,,0,[0.42352577056649654],[-0.12863540061633283],[1],[0],[0],[0.5484849999920698],"[""green""]",0,95,95,95,1,51,49,right,0.4,-0.4,images/blue_box.png,49,Reward3.png,Reward3.png,Rewardnull.png,0,0,0,auditory_stim/coin3.wav,auditory_stim/coin3.wav,auditory_stim/silence_short.wav,872,0.9,146989,20,female,0,2021-03-25_00h06.04.105,rl,2020.2.10,Linux x86_64,60,,,,,,
,,1,[0.42292792697900616],[-0.11492393270295648],[1],[0],[0],[2.1772349999955622],"[""blue""]",0,96,96,96,1,26,74,left,-0.4,0.4,images/blue_box.png,74,Reward2.png,Reward4.png,Rewardnull.png,0,0,0,auditory_stim/coin2.wav,auditory_stim/coin4.wav,auditory_stim/silence_short.wav,1200,1.2,146989,20,female,0,2021-03-25_00h06.04.105,rl,2020.2.10,Linux x86_64,60,,,,,,
,,0,[0.42890570453943566],[-0.08213568688908417],[1],[0],[0],[0.26542999999946915],"[""green""]",0,97,97,97,1,70,30,right,0.4,-0.4,images/blue_box.png,30,Reward4.png,Reward2.png,Rewardnull.png,0,0,0,auditory_stim/coin4.wav,auditory_stim/coin2.wav,auditory_stim/silence_short.wav,887,0.9,146989,20,female,0,2021-03-25_00h06.04.105,rl,2020.2.10,Linux x86_64,60,,,,,,
,,1,[0.41515680674595534],[-0.09942405947551522],[1],[0],[0],[0.12888000000384636],"[""green""]",0,98,98,98,1,97,3,right,0.4,-0.4,images/green_box.png,97,Reward5.png,Reward1.png,Rewardnull.png,0,0,0,auditory_stim/coin5.wav,auditory_stim/coin1.wav,auditory_stim/silence_short.wav,999,1,146989,20,female,0,2021-03-25_00h06.04.105,rl,2020.2.10,Linux x86_64,60,,,,,,
,,0,[0.430699047212057],[-0.10955857569337442],[1],[0],[0],[0.5773350000090431],"[""green""]",0,99,99,99,1,80,20,right,0.4,-0.4,images/blue_box.png,20,Reward4.png,Reward1.png,Rewardnull.png,0,0,0,auditory_stim/coin4.wav,auditory_stim/coin1.wav,auditory_stim/silence_short.wav,1247,1.2,146989,20,female,0,2021-03-25_00h06.04.105,rl,2020.2.10,Linux x86_64,60,,,,,,
,,1,[0.42591686278168334],[-0.11552008348179892],[1],[0],[0],[0.2141750000009779],"[""blue""]",0,100,100,100,1,74,26,left,-0.4,0.4,images/blue_box.png,26,Reward4.png,Reward2.png,Rewardnull.png,0,0,0,auditory_stim/coin4.wav,auditory_stim/coin2.wav,auditory_stim/silence_short.wav,1030,1,146989,20,female,0,2021-03-25_00h06.04.105,rl,2020.2.10,Linux x86_64,60,,,,,,
,,0,[0.42651461232424887],[-0.12207774204906587],[1],[0],[0],[0.7266399999934947],"[""green""]",0,101,101,101,1,82,18,right,0.4,-0.4,images/blue_box.png,18,Reward5.png,Reward1.png,Rewardnull.png,0,0,0,auditory_stim/coin5.wav,auditory_stim/coin1.wav,auditory_stim/silence_short.wav,870,0.9,146989,20,female,0,2021-03-25_00h06.04.105,rl,2020.2.10,Linux x86_64,60,,,,,,
,,0,[0.43129689079954736],[-0.12803924983749038],[1],[0],[0],[0.18130500000552274],"[""green""]",0,102,102,102,1,23,77,right,0.4,-0.4,images/blue_box.png,77,Reward2.png,Reward4.png,Rewardnull.png,0,0,0,auditory_stim/coin2.wav,auditory_stim/coin4.wav,auditory_stim/silence_short.wav,953,1,146989,20,female,0,2021-03-25_00h06.04.105,rl,2020.2.10,Linux x86_64,60,,,,,,
,,0,[0.4402635101177292],[-0.11969313893369607],[1],[0],[0],[0.1418099999864353],"[""green""]",0,103,103,103,1,74,26,right,0.4,-0.4,images/blue_box.png,26,Reward4.png,Reward2.png,Rewardnull.png,0,0,0,auditory_stim/coin4.wav,auditory_stim/coin2.wav,auditory_stim/silence_short.wav,1040,1,146989,20,female,0,2021-03-25_00h06.04.105,rl,2020.2.10,Linux x86_64,60,,,,,,
,,1,[0.45281690882607856],[-0.10717397257800462],[1],[0],[0],[0.2965600000025006],"[""blue""]",0,104,104,104,1,36,64,left,-0.4,0.4,images/blue_box.png,64,Reward2.png,Reward4.png,Rewardnull.png,0,0,0,auditory_stim/coin2.wav,auditory_stim/coin4.wav,auditory_stim/silence_short.wav,995,1,146989,20,female,0,2021-03-25_00h06.04.105,rl,2020.2.10,Linux x86_64,60,,,,,,
,,1,[0.45281690882607856],[-0.10717397257800462],[1],[0],[0],[0.5718249999918044],"[""green""]",0,105,105,105,1,27,73,right,0.4,-0.4,images/green_box.png,27,Reward2.png,Reward4.png,Rewardnull.png,0,0,0,auditory_stim/coin2.wav,auditory_stim/coin4.wav,auditory_stim/silence_short.wav,793,0.8,146989,20,female,0,2021-03-25_00h06.04.105,rl,2020.2.10,Linux x86_64,60,,,,,,
,,1,[-0.42472131667408997],[-0.017155251995257127],[1],[0],[0],[2.6233550000033574],"[""blue""]",0,106,106,106,1,0,100,right,0.4,-0.4,images/blue_box.png,100,Rewardnull.png,Reward5.png,Rewardnull.png,0,0,0,auditory_stim/coin1.wav,auditory_stim/coin5.wav,auditory_stim/silence_short.wav,1156,1.2,146989,20,female,0,2021-03-25_00h06.04.105,rl,2020.2.10,Linux x86_64,60,,,,,,
,,0,[-0.3589657635093654],[0.03411371498519357],[1],[0],[0],[2.0608700000011595],"[""green""]",0,107,107,107,1,64,36,left,-0.4,0.4,images/blue_box.png,36,Reward4.png,Reward2.png,Rewardnull.png,0,0,0,auditory_stim/coin4.wav,auditory_stim/coin2.wav,auditory_stim/silence_short.wav,1028,1,146989,20,female,0,2021-03-25_00h06.04.105,rl,2020.2.10,Linux x86_64,60,,,,,,
,,0,[0.4868902315160343],[-0.034443624581688176],[1],[0],[0],[13.684859999993932],"[""green""]",0,108,108,108,1,29,71,right,0.4,-0.4,images/blue_box.png,71,Reward2.png,Reward4.png,Rewardnull.png,0,0,0,auditory_stim/coin2.wav,auditory_stim/coin4.wav,auditory_stim/silence_short.wav,923,0.9,146989,20,female,0,2021-03-25_00h06.04.105,rl,2020.2.10,Linux x86_64,60,,,,,,
,,0,[0.4886835741886556],[0.002517723706543721],[1],[0],[0],[0.7305400000041118],"[""green""]",0,109,109,109,1,80,20,right,0.4,-0.4,images/blue_box.png,20,Reward4.png,Reward1.png,Rewardnull.png,0,0,0,auditory_stim/coin4.wav,auditory_stim/coin1.wav,auditory_stim/silence_short.wav,1095,1.1,146989,20,female,0,2021-03-25_00h06.04.105,rl,2020.2.10,Linux x86_64,60,,,,,,
,,0,[0.4552080010412654],[-0.09286640090824827],[1],[0],[0],[0.45211499999277294],"[""blue""]",0,110,110,110,1,87,13,left,-0.4,0.4,images/green_box.png,87,Reward5.png,Reward1.png,Rewardnull.png,0,0,0,auditory_stim/coin5.wav,auditory_stim/coin1.wav,auditory_stim/silence_short.wav,1193,1.2,146989,20,female,0,2021-03-25_00h06.04.105,rl,2020.2.10,Linux x86_64,60,,,,,,
,,0,[0.4689568988347458],[-0.08988564701403602],[1],[0],[0],[0.6446050000085961],"[""green""]",0,111,111,111,1,49,51,right,0.4,-0.4,images/blue_box.png,51,Reward3.png,Reward3.png,Rewardnull.png,0,0,0,auditory_stim/coin3.wav,auditory_stim/coin3.wav,auditory_stim/silence_short.wav,1053,1.1,146989,20,female,0,2021-03-25_00h06.04.105,rl,2020.2.10,Linux x86_64,60,,,,,,
,,0,[0.4844991393008475],[-0.09405870246593316],[1],[0],[0],[0.6964299999960986],"[""green""]",0,112,112,112,1,70,30,right,0.4,-0.4,images/blue_box.png,30,Reward4.png,Reward2.png,Rewardnull.png,0,0,0,auditory_stim/coin4.wav,auditory_stim/coin2.wav,auditory_stim/silence_short.wav,833,0.8,146989,20,female,0,2021-03-25_00h06.04.105,rl,2020.2.10,Linux x86_64,60,,,,,,
,,0,[0.47373908326511943],[-0.11730853581832627],[1],[0],[0],[0.0480649999956313],"[""green""]",0,113,113,113,1,27,73,right,0.4,-0.4,images/blue_box.png,73,Reward2.png,Reward4.png,Rewardnull.png,0,0,0,auditory_stim/coin2.wav,auditory_stim/coin4.wav,auditory_stim/silence_short.wav,1108,1.1,146989,20,female,0,2021-03-25_00h06.04.105,rl,2020.2.10,Linux x86_64,60,,,,,,
,,0,[0.47015239791987673],[-0.12446234516443568],[1],[0],[0],[0.0456249999983811],"[""green""]",0,114,114,114,1,72,28,right,0.4,-0.4,images/blue_box.png,28,Reward4.png,Reward2.png,Rewardnull.png,0,0,0,auditory_stim/coin4.wav,auditory_stim/coin2.wav,auditory_stim/silence_short.wav,869,0.9,146989,20,female,0,2021-03-25_00h06.04.105,rl,2020.2.10,Linux x86_64,60,,,,,,
,,0,[0.46955464837731126],[-0.12565464672212057],[1],[0],[0],[0.02939499999047257],"[""green""]",0,115,115,115,1,39,61,right,0.4,-0.4,images/blue_box.png,61,Reward2.png,Reward4.png,Rewardnull.png,0,0,0,auditory_stim/coin2.wav,auditory_stim/coin4.wav,auditory_stim/silence_short.wav,1029,1,146989,20,female,0,2021-03-25_00h06.04.105,rl,2020.2.10,Linux x86_64,60,,,,,,
,,1,[0.4683590552472554],[-0.10359706790494992],[1],[0],[0],[0.34575999999651685],"[""blue""]",0,116,116,116,1,65,35,left,-0.4,0.4,images/blue_box.png,35,Reward4.png,Reward2.png,Rewardnull.png,0,0,0,auditory_stim/coin4.wav,auditory_stim/coin2.wav,auditory_stim/silence_short.wav,1046,1,146989,20,female,0,2021-03-25_00h06.04.105,rl,2020.2.10,Linux x86_64,60,,,,,,
,,1,[],[],[],[],[],[],[],0,117,117,117,1,71,29,right,0.4,-0.4,images/green_box.png,71,Reward4.png,Reward2.png,Rewardnull.png,0,0,0,auditory_stim/coin4.wav,auditory_stim/coin2.wav,auditory_stim/silence_short.wav,917,0.9,146989,20,female,0,2021-03-25_00h06.04.105,rl,2020.2.10,Linux x86_64,60,,,,,,
,,0,[-0.315925727456303],[-0.09525100402361807],[1],[0],[0],[6.575470000010682],"[""green""]",0,118,118,118,1,73,27,left,-0.4,0.4,images/blue_box.png,27,Reward4.png,Reward2.png,Rewardnull.png,0,0,0,auditory_stim/coin4.wav,auditory_stim/coin2.wav,auditory_stim/silence_short.wav,1161,1.2,146989,20,female,0,2021-03-25_00h06.04.105,rl,2020.2.10,Linux x86_64,60,,,,,,
,,0,[0.430699047212057],[-0.06782806819686538],[1],[0],[0],[0.5622750000043197],"[""blue""]",0,119,119,119,1,70,30,left,-0.4,0.4,images/green_box.png,70,Reward4.png,Reward2.png,Rewardnull.png,0,0,0,auditory_stim/coin4.wav,auditory_stim/coin2.wav,auditory_stim/silence_short.wav,1091,1.1,146989,20,female,0,2021-03-25_00h06.04.105,rl,2020.2.10,Linux x86_64,60,,,,,,
,,1,[-0.3350546062451849],[0.02994065953329642],[1],[0],[0],[1.3472049999982119],"[""green""]",0,120,120,120,1,53,47,left,-0.4,0.4,images/green_box.png,53,Reward3.png,Reward3.png,Rewardnull.png,0,0,0,auditory_stim/coin3.wav,auditory_stim/coin3.wav,auditory_stim/silence_short.wav,1180,1.2,146989,20,female,0,2021-03-25_00h06.04.105,rl,2020.2.10,Linux x86_64,60,,,,,,
,,0,[-0.2961990521023931],[-0.008212990312620377],[1],[0],[0],[1.212549999996554],"[""blue""]",0,121,121,121,1,30,70,right,0.4,-0.4,images/green_box.png,30,Reward2.png,Reward4.png,Rewardnull.png,0,0,0,auditory_stim/coin2.wav,auditory_stim/coin4.wav,auditory_stim/silence_short.wav,1007,1,146989,20,female,0,2021-03-25_00h06.04.105,rl,2020.2.10,Linux x86_64,60,,,,,,
,,1,[-0.4145591042258523],[0.003710025264228621],[1],[0],[0],[1.4476049999939278],"[""blue""]",0,122,122,122,1,33,67,right,0.4,-0.4,images/blue_box.png,67,Reward2.png,Reward4.png,Rewardnull.png,0,0,0,auditory_stim/coin2.wav,auditory_stim/coin4.wav,auditory_stim/silence_short.wav,1212,1.2,146989,20,female,0,2021-03-25_00h06.04.105,rl,2020.2.10,Linux x86_64,60,,,,,,
,,0,[-0.40021240986734397],[0.01265228694686537],[1],[0],[0],[0.9284000000043306],"[""blue""]",0,123,123,123,1,23,77,right,0.4,-0.4,images/green_box.png,23,Reward2.png,Reward4.png,Rewardnull.png,0,0,0,auditory_stim/coin2.wav,auditory_stim/coin4.wav,auditory_stim/silence_short.wav,850,0.9,146989,20,female,0,2021-03-25_00h06.04.105,rl,2020.2.10,Linux x86_64,60,,,,,,
,,0,[0.3499990031237962],[0.026959905639084167],[1],[0],[0],[1.2438450000042849],"[""blue""]",0,124,124,124,1,22,78,left,-0.4,0.4,images/green_box.png,22,Reward2.png,Reward4.png,Rewardnull.png,0,0,0,auditory_stim/coin2.wav,auditory_stim/coin4.wav,auditory_stim/silence_short.wav,1196,1.2,146989,20,female,0,2021-03-25_00h06.04.105,rl,2020.2.10,Linux x86_64,60,,,,,,
,,1,[0.4336879830147342],[0.07226736483111036],[1],[0],[0],[0.8781350000062957],"[""blue""]",0,125,125,125,1,41,59,left,-0.4,0.4,images/blue_box.png,59,Reward3.png,Reward3.png,Rewardnull.png,0,0,0,auditory_stim/coin3.wav,auditory_stim/coin3.wav,auditory_stim/silence_short.wav,824,0.8,146989,20,female,0,2021-03-25_00h06.04.105,rl,2020.2.10,Linux x86_64,60,,,,,,
,,1,[0.37689904916819145],[-0.197788890962057],[1],[0],[0],[1.561164999992343],"[""blue""]",0,126,126,126,1,8,92,left,-0.4,0.4,images/blue_box.png,92,Reward1.png,Reward5.png,Rewardnull.png,0,0,0,auditory_stim/coin1.wav,auditory_stim/coin5.wav,auditory_stim/silence_short.wav,1144,1.1,146989,20,female,0,2021-03-25_00h06.04.105,rl,2020.2.10,Linux x86_64,60,,,,,,
,,0,[0.4205368347638193],[-0.023116759783681627],[1],[0],[0],[1.493984999993927],"[""blue""]",0,127,127,127,1,14,86,left,-0.4,0.4,images/green_box.png,14,Reward1.png,Reward5.png,Rewardnull.png,0,0,0,auditory_stim/coin1.wav,auditory_stim/coin5.wav,auditory_stim/silence_short.wav,1130,1.1,146989,20,female,0,2021-03-25_00h06.04.105,rl,2020.2.10,Linux x86_64,60,,,,,,
,,1,[-0.3446190691508571],[-0.015962950437572225],[1],[0],[0],[1.127014999991161],"[""green""]",0,128,128,128,1,56,44,left,-0.4,0.4,images/green_box.png,56,Reward3.png,Reward3.png,Rewardnull.png,0,0,0,auditory_stim/coin3.wav,auditory_stim/coin3.wav,auditory_stim/silence_short.wav,780,0.8,146989,20,female,0,2021-03-25_00h06.04.105,rl,2020.2.10,Linux x86_64,60,,,,,,
,,1,[-0.3613568557245522],[0.1271131894621533],[1],[0],[0],[1.7294949999925393],"[""green""]",0,129,129,129,1,58,42,left,-0.4,0.4,images/green_box.png,58,Reward3.png,Reward3.png,Rewardnull.png,0,0,0,auditory_stim/coin3.wav,auditory_stim/coin3.wav,auditory_stim/silence_short.wav,1081,1.1,146989,20,female,0,2021-03-25_00h06.04.105,rl,2020.2.10,Linux x86_64,60,,,,,,
,,0,[0.36135680870208975],[-0.13757766229896956],[1],[0],[0],[1.4795400000007248],"[""blue""]",0,130,130,130,1,46,54,left,-0.4,0.4,images/green_box.png,46,Reward3.png,Reward3.png,Rewardnull.png,0,0,0,auditory_stim/coin3.wav,auditory_stim/coin3.wav,auditory_stim/silence_short.wav,792,0.8,146989,20,female,0,2021-03-25_00h06.04.105,rl,2020.2.10,Linux x86_64,60,,,,,,
,,1,[-0.3643457445047669],[0.046632881340885016],[1],[0],[0],[1.3137200000051052],"[""green""]",0,131,131,131,1,75,25,left,-0.4,0.4,images/green_box.png,75,Reward4.png,Reward2.png,Rewardnull.png,0,0,0,auditory_stim/coin4.wav,auditory_stim/coin2.wav,auditory_stim/silence_short.wav,1197,1.2,146989,20,female,0,2021-03-25_00h06.04.105,rl,2020.2.10,Linux x86_64,60,,,,,,
,,0,[-0.31532793089127503],[0.01265228694686537],[1],[0],[0],[1.1395300000006046],"[""blue""]",0,132,132,132,1,39,61,right,0.4,-0.4,images/green_box.png,39,Reward2.png,Reward4.png,Rewardnull.png,0,0,0,auditory_stim/coin2.wav,auditory_stim/coin4.wav,auditory_stim/silence_short.wav,860,0.9,146989,20,female,0,2021-03-25_00h06.04.105,rl,2020.2.10,Linux x86_64,60,,,,,,
,,0,[-0.345216865715885],[0.02576760408139927],[1],[0],[0],[1.0629199999966659],"[""green""]",0,133,133,133,1,90,10,left,-0.4,0.4,images/blue_box.png,10,Reward5.png,Reward1.png,Rewardnull.png,0,0,0,auditory_stim/coin5.wav,auditory_stim/coin1.wav,auditory_stim/silence_short.wav,1243,1.2,146989,20,female,0,2021-03-25_00h06.04.105,rl,2020.2.10,Linux x86_64,60,,,,,,
,,1,[-0.37689909619065387],[-0.043982037043167374],[1],[0],[0],[1.1307149999918238],"[""green""]",0,134,134,134,1,88,12,left,-0.4,0.4,images/green_box.png,88,Reward5.png,Reward1.png,Rewardnull.png,0,0,0,auditory_stim/coin5.wav,auditory_stim/coin1.wav,auditory_stim/silence_short.wav,971,1,146989,20,female,0,2021-03-25_00h06.04.105,rl,2020.2.10,Linux x86_64,60,,,,,,
,,1,[0.42531911323911786],[0.033517564206351116],[1],[0],[0],[1.06464499999106],"[""green""]",0,135,135,135,1,81,19,right,0.4,-0.4,images/green_box.png,81,Reward5.png,Reward1.png,Rewardnull.png,0,0,0,auditory_stim/coin5.wav,auditory_stim/coin1.wav,auditory_stim/silence_short.wav,1246,1.2,146989,20,female,0,2021-03-25_00h06.04.105,rl,2020.2.10,Linux x86_64,60,,,,,,
,,1,[-0.2788634689636701],[0.06511355548500096],[1],[0],[0],[0.9300099999966278],"[""green""]",0,136,136,136,1,73,27,left,-0.4,0.4,images/green_box.png,73,Reward4.png,Reward2.png,Rewardnull.png,0,0,0,auditory_stim/coin4.wav,auditory_stim/coin2.wav,auditory_stim/silence_short.wav,921,0.9,146989,20,female,0,2021-03-25_00h06.04.105,rl,2020.2.10,Linux x86_64,60,,,,,,
,,0,[-0.3828768737510834],[0.04722903211972747],[1],[0],[0],[1.478369999997085],"[""blue""]",0,137,137,137,1,25,75,right,0.4,-0.4,images/green_box.png,25,Reward2.png,Reward4.png,Rewardnull.png,0,0,0,auditory_stim/coin2.wav,auditory_stim/coin4.wav,auditory_stim/silence_short.wav,1011,1,146989,20,female,0,2021-03-25_00h06.04.105,rl,2020.2.10,Linux x86_64,60,,,,,,
,,1,[0.46297912127431623],[-0.03325132302400327],[1],[0],[0],[1.7114849999927628],"[""green""]",0,138,138,138,1,85,15,right,0.4,-0.4,images/green_box.png,85,Reward5.png,Reward1.png,Rewardnull.png,0,0,0,auditory_stim/coin5.wav,auditory_stim/coin1.wav,auditory_stim/silence_short.wav,893,0.9,146989,20,female,0,2021-03-25_00h06.04.105,rl,2020.2.10,Linux x86_64,60,,,,,,
,,0,[-0.3858657625312982],[0.004902326821913521],[1],[0],[0],[1.150324999995064],"[""green""]",0,139,139,139,1,59,41,left,-0.4,0.4,images/blue_box.png,41,Reward3.png,Reward3.png,Rewardnull.png,0,0,0,auditory_stim/coin3.wav,auditory_stim/coin3.wav,auditory_stim/silence_short.wav,1009,1,146989,20,female,0,2021-03-25_00h06.04.105,rl,2020.2.10,Linux x86_64,60,,,,,,
,,1,[0.31233899508859786],[0.057959746138891564],[1],[0],[0],[1.0816550000020015],"[""green""]",0,140,140,140,1,57,43,right,0.4,-0.4,images/green_box.png,57,Reward3.png,Reward3.png,Rewardnull.png,0,0,0,auditory_stim/coin3.wav,auditory_stim/coin3.wav,auditory_stim/silence_short.wav,1143,1.1,146989,20,female,0,2021-03-25_00h06.04.105,rl,2020.2.10,Linux x86_64,60,,,,,,
,,1,[-0.3625524018321456],[0.003710025264228621],[1],[0],[0],[0.9274149999980636],"[""green""]",0,141,141,141,1,93,7,left,-0.4,0.4,images/green_box.png,93,Reward5.png,Reward1.png,Rewardnull.png,0,0,0,auditory_stim/coin5.wav,auditory_stim/coin1.wav,auditory_stim/silence_short.wav,983,1,146989,20,female,0,2021-03-25_00h06.04.105,rl,2020.2.10,Linux x86_64,60,,,,,,
,,1,[0.40798353010039484],[-0.035635926139373074],[1],[0],[0],[0.9138600000005681],"[""blue""]",0,142,142,142,1,42,58,left,-0.4,0.4,images/blue_box.png,58,Reward3.png,Reward3.png,Rewardnull.png,0,0,0,auditory_stim/coin3.wav,auditory_stim/coin3.wav,auditory_stim/silence_short.wav,1133,1.1,146989,20,female,0,2021-03-25_00h06.04.105,rl,2020.2.10,Linux x86_64,60,,,,,,
,,0,[-0.38467021642370475],[0.03232526264866622],[1],[0],[0],[1.5935049999970943],"[""blue""]",0,143,143,143,1,13,87,right,0.4,-0.4,images/green_box.png,13,Reward1.png,Reward5.png,Rewardnull.png,0,0,0,auditory_stim/coin1.wav,auditory_stim/coin5.wav,auditory_stim/silence_short.wav,882,0.9,146989,20,female,0,2021-03-25_00h06.04.105,rl,2020.2.10,Linux x86_64,60,,,,,,
,,0,[0.3523901893839079],[-0.09167409935056337],[1],[0],[0],[1.1940400000025875],"[""blue""]",0,144,144,144,1,43,57,left,-0.4,0.4,images/green_box.png,43,Reward3.png,Reward3.png,Rewardnull.png,0,0,0,auditory_stim/coin3.wav,auditory_stim/coin3.wav,auditory_stim/silence_short.wav,1238,1.2,146989,20,female,0,2021-03-25_00h06.04.105,rl,2020.2.10,Linux x86_64,60,,,,,,
,,1,[0.3860778338369126],[-0.05784731543119222],[1],[0],[0],[3.4438000000081956],"[""green""]",0,145,145,145,1,61,39,right,0.4,-0.4,images/green_box.png,61,Reward4.png,Reward2.png,Rewardnull.png,0,0,0,auditory_stim/coin4.wav,auditory_stim/coin2.wav,auditory_stim/silence_short.wav,918,0.9,146989,20,female,0,2021-03-25_00h06.04.105,rl,2020.2.10,Linux x86_64,60,,,,,,
,,1,[-0.381736626059322],[-0.037288577604367296],[1],[0],[0],[3.9245349999982864],"[""green""]",0,146,146,146,1,77,23,left,-0.4,0.4,images/green_box.png,77,Reward4.png,Reward2.png,Rewardnull.png,0,0,0,auditory_stim/coin4.wav,auditory_stim/coin2.wav,auditory_stim/silence_short.wav,794,0.8,146989,20,female,0,2021-03-25_00h06.04.105,rl,2020.2.10,Linux x86_64,60,,,,,,
,,1,[-0.3690399499079112],[-0.03186265566315967],[1],[0],[0],[1.1781550000018797],"[""green""]",0,147,147,147,1,90,10,left,-0.4,0.4,images/green_box.png,90,Reward5.png,Reward1.png,Rewardnull.png,0,0,0,auditory_stim/coin5.wav,auditory_stim/coin1.wav,auditory_stim/silence_short.wav,804,0.8,146989,20,female,0,2021-03-25_00h06.04.105,rl,2020.2.10,Linux x86_64,60,,,,,,
,,0,[-0.3690399499079112],[-0.03186265566315967],[1],[0],[0],[0.9604249999974854],"[""blue""]",0,148,148,148,1,39,61,right,0.4,-0.4,images/green_box.png,39,Reward2.png,Reward4.png,Rewardnull.png,0,0,0,auditory_stim/coin2.wav,auditory_stim/coin4.wav,auditory_stim/silence_short.wav,879,0.9,146989,20,female,0,2021-03-25_00h06.04.105,rl,2020.2.10,Linux x86_64,60,,,,,,
,,0,[-0.3690399499079112],[-0.03186265566315967],[1],[0],[0],[1.4929100000003928],"[""blue""]",0,149,149,149,1,68,32,right,0.4,-0.4,images/green_box.png,68,Reward4.png,Reward2.png,Rewardnull.png,0,0,0,auditory_stim/coin4.wav,auditory_stim/coin2.wav,auditory_stim/silence_short.wav,809,0.8,146989,20,female,0,2021-03-25_00h06.04.105,rl,2020.2.10,Linux x86_64,60,,,,,,
,,1,[0.40963552325091485],[-0.03976040738756741],[1],[0],[0],[0.9606000000055701],"[""green""]",0,150,150,150,1,93,7,right,0.4,-0.4,images/green_box.png,93,Reward5.png,Reward1.png,Rewardnull.png,0,0,0,auditory_stim/coin5.wav,auditory_stim/coin1.wav,auditory_stim/silence_short.wav,1194,1.2,146989,20,female,0,2021-03-25_00h06.04.105,rl,2020.2.10,Linux x86_64,60,,,,,,
,,0,[-0.32390515719797286],[-0.02504543310321167],[1],[0],[0],[2.581794999991189],"[""blue""]",0,151,151,151,1,9,91,right,0.4,-0.4,images/green_box.png,9,Reward1.png,Reward5.png,Rewardnull.png,0,0,0,auditory_stim/coin1.wav,auditory_stim/coin5.wav,auditory_stim/silence_short.wav,1119,1.1,146989,20,female,0,2021-03-25_00h06.04.105,rl,2020.2.10,Linux x86_64,60,,,,,,
,,0,[-0.2955596406581038],[-0.016715262814185287],[1],[0],[0],[1.4789149999999154],"[""blue""]",0,152,152,152,1,47,53,right,0.4,-0.4,images/green_box.png,47,Reward3.png,Reward3.png,Rewardnull.png,0,0,0,auditory_stim/coin3.wav,auditory_stim/coin3.wav,auditory_stim/silence_short.wav,932,0.9,146989,20,female,0,2021-03-25_00h06.04.105,rl,2020.2.10,Linux x86_64,60,,,,,,
,,0,"[0.23171381076054506,0.26827922991501346]","[-0.03568271348950308,-0.04389250627467739]","[1,1]","[0,0]","[0,0]","[1.2101899999977377,1.859240000005002]","[""blue""]",0,153,153,153,1,7,93,left,-0.4,0.4,images/green_box.png,7,Reward1.png,Reward5.png,Rewardnull.png,0,0,0,auditory_stim/coin1.wav,auditory_stim/coin5.wav,auditory_stim/silence_short.wav,826,0.8,146989,20,female,0,2021-03-25_00h06.04.105,rl,2020.2.10,Linux x86_64,60,,,,,,
,,1,[0.2649482527205316],[-0.04544706888301714],[1],[0],[0],[1.5268700000015087],"[""green""]",0,154,154,154,1,50,50,right,0.4,-0.4,images/green_box.png,50,Reward3.png,Reward3.png,Rewardnull.png,0,0,0,auditory_stim/coin3.wav,auditory_stim/coin3.wav,auditory_stim/silence_short.wav,1147,1.1,146989,20,female,0,2021-03-25_00h06.04.105,rl,2020.2.10,Linux x86_64,60,,,,,,
,,1,[-0.29322662118403314],[0.02342546224961479],[1],[0],[0],[1.411299999992707],"[""green""]",0,155,155,155,1,66,34,left,-0.4,0.4,images/green_box.png,66,Reward4.png,Reward2.png,Rewardnull.png,0,0,0,auditory_stim/coin4.wav,auditory_stim/coin2.wav,auditory_stim/silence_short.wav,1050,1.1,146989,20,female,0,2021-03-25_00h06.04.105,rl,2020.2.10,Linux x86_64,60,,,,,,
,,0,[-0.46150308617825503],[-0.10635498234964849],[1],[0],[0],[1.4625300000045627],"[""blue""]",0,156,156,156,1,48,52,right,0.4,-0.4,images/green_box.png,48,Reward3.png,Reward3.png,Rewardnull.png,0,0,0,auditory_stim/coin3.wav,auditory_stim/coin3.wav,auditory_stim/silence_short.wav,898,0.9,146989,20,female,0,2021-03-25_00h06.04.105,rl,2020.2.10,Linux x86_64,60,,,,,,
,,1,[-0.4452697095591776],[-0.09358857188643586],[1],[0],[0],[1.3011249999981374],"[""green""]",0,157,157,157,1,78,22,left,-0.4,0.4,images/green_box.png,78,Reward4.png,Reward2.png,Rewardnull.png,0,0,0,auditory_stim/coin4.wav,auditory_stim/coin2.wav,auditory_stim/silence_short.wav,982,1,146989,20,female,0,2021-03-25_00h06.04.105,rl,2020.2.10,Linux x86_64,60,,,,,,
,,1,[-0.2580058563655624],[-0.1203117664495859],[1],[0],[0],[1.0041049999999814],"[""green""]",0,158,158,158,1,88,12,left,-0.4,0.4,images/green_box.png,88,Reward5.png,Reward1.png,Rewardnull.png,0,0,0,auditory_stim/coin5.wav,auditory_stim/coin1.wav,auditory_stim/silence_short.wav,1198,1.2,146989,20,female,0,2021-03-25_00h06.04.105,rl,2020.2.10,Linux x86_64,60,,,,,,
,,1,[0.38415075928110554],[0.09135688581892816],[1],[0],[0],[1.245360000000801],"[""green""]",0,159,159,159,1,89,11,right,0.4,-0.4,images/green_box.png,89,Reward5.png,Reward1.png,Rewardnull.png,0,0,0,auditory_stim/coin5.wav,auditory_stim/coin1.wav,auditory_stim/silence_short.wav,800,0.8,146989,20,female,0,2021-03-25_00h06.04.105,rl,2020.2.10,Linux x86_64,60,,,,,,
,,0,[0.5109746665543143],[0.058174920927027154],[1],[0],[0],[1.2180749999968157],"[""green""]",0,160,160,160,1,77,23,right,0.4,-0.4,images/blue_box.png,23,Reward4.png,Reward2.png,Rewardnull.png,0,0,0,auditory_stim/coin4.wav,auditory_stim/coin2.wav,auditory_stim/silence_short.wav,1245,1.2,146989,20,female,0,2021-03-25_00h06.04.105,rl,2020.2.10,Linux x86_64,60,,,,,,
,,0,[0.4819588918347939],[-0.07080830484399075],[1],[0],[0],[1.264314999993303],"[""blue""]",0,161,161,161,1,30,70,left,-0.4,0.4,images/green_box.png,30,Reward2.png,Reward4.png,Rewardnull.png,0,0,0,auditory_stim/coin2.wav,auditory_stim/coin4.wav,auditory_stim/silence_short.wav,829,0.8,146989,20,female,0,2021-03-25_00h06.04.105,rl,2020.2.10,Linux x86_64,60,,,,,,
,,1,[0.4819588918347939],[-0.07080830484399075],[1],[0],[0],[1.1836499999922125],"[""green""]",0,162,162,162,1,45,55,right,0.4,-0.4,images/green_box.png,45,Reward3.png,Reward3.png,Rewardnull.png,0,0,0,auditory_stim/coin3.wav,auditory_stim/coin3.wav,auditory_stim/silence_short.wav,1115,1.1,146989,20,female,0,2021-03-25_00h06.04.105,rl,2020.2.10,Linux x86_64,60,,,,,,
,,0,[-0.2791367164929218],[-0.05000119437054603],[1],[0],[0],[1.5753750000001219],"[""blue""]",0,163,163,163,1,8,92,right,0.4,-0.4,images/green_box.png,8,Reward1.png,Reward5.png,Rewardnull.png,0,0,0,auditory_stim/coin1.wav,auditory_stim/coin5.wav,auditory_stim/silence_short.wav,806,0.8,146989,20,female,0,2021-03-25_00h06.04.105,rl,2020.2.10,Linux x86_64,60,,,,,,
,,0,[0.354076320842161],[-0.1947373212394068],[1],[0],[0],[1.7654250000052798],"[""green""]",0,164,164,164,1,58,42,right,0.4,-0.4,images/blue_box.png,42,Reward3.png,Reward3.png,Rewardnull.png,0,0,0,auditory_stim/coin3.wav,auditory_stim/coin3.wav,auditory_stim/silence_short.wav,1019,1,146989,20,female,0,2021-03-25_00h06.04.105,rl,2020.2.10,Linux x86_64,60,,,,,,
,,1,[-0.299289932603645],[-0.02555210013602658],[1],[0],[0],[1.8604300000006333],"[""green""]",0,165,165,165,1,51,49,left,-0.4,0.4,images/green_box.png,51,Reward3.png,Reward3.png,Rewardnull.png,0,0,0,auditory_stim/coin3.wav,auditory_stim/coin3.wav,auditory_stim/silence_short.wav,880,0.9,146989,20,female,0,2021-03-25_00h06.04.105,rl,2020.2.10,Linux x86_64,60,,,,,,
,,1,[0.34014920791602465],[-0.030570619462634823],[1],[0],[0],[2.180940000005421],"[""blue""]",0,166,166,166,1,43,57,left,-0.4,0.4,images/blue_box.png,57,Reward3.png,Reward3.png,Rewardnull.png,0,0,0,auditory_stim/coin3.wav,auditory_stim/coin3.wav,auditory_stim/silence_short.wav,1120,1.1,146989,20,female,0,2021-03-25_00h06.04.105,rl,2020.2.10,Linux x86_64,60,,,,,,
,,0,[0.47350735657020415],[-0.02601240302087346],[1],[0],[0],[1.2114650000003166],"[""green""]",0,167,167,167,1,77,23,right,0.4,-0.4,images/blue_box.png,23,Reward4.png,Reward2.png,Rewardnull.png,0,0,0,auditory_stim/coin4.wav,auditory_stim/coin2.wav,auditory_stim/silence_short.wav,751,0.8,146989,20,female,0,2021-03-25_00h06.04.105,rl,2020.2.10,Linux x86_64,60,,,,,,
,,0,[-0.29920138930686635],[-0.04663781869944145],[1],[0],[0],[1.6113849999965169],"[""green""]",0,168,168,168,1,57,43,left,-0.4,0.4,images/blue_box.png,43,Reward3.png,Reward3.png,Rewardnull.png,0,0,0,auditory_stim/coin3.wav,auditory_stim/coin3.wav,auditory_stim/silence_short.wav,1008,1,146989,20,female,0,2021-03-25_00h06.04.105,rl,2020.2.10,Linux x86_64,60,,,,,,
,,0,[0.291368011333542],[-0.07023909793612769],[1],[0],[0],[2.959714999990183],"[""green""]",0,169,169,169,1,86,14,right,0.4,-0.4,images/blue_box.png,14,Reward5.png,Reward1.png,Rewardnull.png,0,0,0,auditory_stim/coin5.wav,auditory_stim/coin1.wav,auditory_stim/silence_short.wav,873,0.9,146989,20,female,0,2021-03-25_00h06.04.105,rl,2020.2.10,Linux x86_64,60,,,,,,
,,0,[0.291368011333542],[-0.07023909793612769],[1],[0],[0],[1.0629699999994955],"[""blue""]",0,170,170,170,1,11,89,left,-0.4,0.4,images/green_box.png,11,Reward1.png,Reward5.png,Rewardnull.png,0,0,0,auditory_stim/coin1.wav,auditory_stim/coin5.wav,auditory_stim/silence_short.wav,1223,1.2,146989,20,female,0,2021-03-25_00h06.04.105,rl,2020.2.10,Linux x86_64,60,,,,,,
,,1,[0.291368011333542],[-0.07023909793612769],[1],[0],[0],[1.1308599999899798],"[""blue""]",0,171,171,171,1,30,70,left,-0.4,0.4,images/blue_box.png,70,Reward2.png,Reward4.png,Rewardnull.png,0,0,0,auditory_stim/coin2.wav,auditory_stim/coin4.wav,auditory_stim/silence_short.wav,753,0.8,146989,20,female,0,2021-03-25_00h06.04.105,rl,2020.2.10,Linux x86_64,60,,,,,,
,,1,[0.291368011333542],[-0.07023909793612769],[1],[0],[0],[3.6086149999903228],"[""blue""]",0,172,172,172,1,51,49,left,-0.4,0.4,images/blue_box.png,49,Reward3.png,Reward3.png,Rewardnull.png,0,0,0,auditory_stim/coin3.wav,auditory_stim/coin3.wav,auditory_stim/silence_short.wav,1072,1.1,146989,20,female,0,2021-03-25_00h06.04.105,rl,2020.2.10,Linux x86_64,60,,,,,,
,,0,[-0.3130961978013049],[0.0049759169756355935],[1],[0],[0],[2.7423450000064804],"[""green""]",0,173,173,173,1,89,11,left,-0.4,0.4,images/blue_box.png,11,Reward5.png,Reward1.png,Rewardnull.png,0,0,0,auditory_stim/coin5.wav,auditory_stim/coin1.wav,auditory_stim/silence_short.wav,1136,1.1,146989,20,female,0,2021-03-25_00h06.04.105,rl,2020.2.10,Linux x86_64,60,,,,,,
,,0,[-0.2629400173945493],[-0.023226322121171997],[1],[0],[0],[1.3485649999929592],"[""blue""]",0,174,174,174,1,10,90,right,0.4,-0.4,images/green_box.png,10,Reward1.png,Reward5.png,Rewardnull.png,0,0,0,auditory_stim/coin1.wav,auditory_stim/coin5.wav,auditory_stim/silence_short.wav,1051,1.1,146989,20,female,0,2021-03-25_00h06.04.105,rl,2020.2.10,Linux x86_64,60,,,,,,
,,1,[0.39615286663978233],[-0.009220023368282934],[1],[0],[0],[1.281854999993584],"[""blue""]",0,175,175,175,1,27,73,left,-0.4,0.4,images/blue_box.png,73,Reward2.png,Reward4.png,Rewardnull.png,0,0,0,auditory_stim/coin2.wav,auditory_stim/coin4.wav,auditory_stim/silence_short.wav,1099,1.1,146989,20,female,0,2021-03-25_00h06.04.105,rl,2020.2.10,Linux x86_64,60,,,,,,
,,1,[-0.32822661554133764],[-0.03552688104896957],[1],[0],[0],[1.9476549999963026],"[""blue""]",0,176,176,176,1,44,56,right,0.4,-0.4,images/blue_box.png,56,Reward3.png,Reward3.png,Rewardnull.png,0,0,0,auditory_stim/coin3.wav,auditory_stim/coin3.wav,auditory_stim/silence_short.wav,805,0.8,146989,20,female,0,2021-03-25_00h06.04.105,rl,2020.2.10,Linux x86_64,60,,,,,,
,,0,[-0.5288154120070542],[-0.05479870812367585],[1],[0],[0],[1.4964249999902677],"[""green""]",0,177,177,177,1,48,52,left,-0.4,0.4,images/blue_box.png,52,Reward3.png,Reward3.png,Rewardnull.png,0,0,0,auditory_stim/coin3.wav,auditory_stim/coin3.wav,auditory_stim/silence_short.wav,1126,1.1,146989,20,female,0,2021-03-25_00h06.04.105,rl,2020.2.10,Linux x86_64,60,,,,,,
,,0,[-0.44448579808780336],[-0.07338475960612481],[1],[0],[0],[0.5933550000042942],"[""green""]",0,178,178,178,1,37,63,left,-0.4,0.4,images/blue_box.png,63,Reward2.png,Reward4.png,Rewardnull.png,0,0,0,auditory_stim/coin2.wav,auditory_stim/coin4.wav,auditory_stim/silence_short.wav,1141,1.1,146989,20,female,0,2021-03-25_00h06.04.105,rl,2020.2.10,Linux x86_64,60,,,,,,
,,0,[-0.44448579808780336],[-0.07338475960612481],[1],[0],[0],[0.929560000003903],"[""green""]",0,179,179,179,1,35,65,left,-0.4,0.4,images/blue_box.png,65,Reward2.png,Reward4.png,Rewardnull.png,0,0,0,auditory_stim/coin2.wav,auditory_stim/coin4.wav,auditory_stim/silence_short.wav,996,1,146989,20,female,0,2021-03-25_00h06.04.105,rl,2020.2.10,Linux x86_64,60,,,,,,
,,1,[-0.39356221109399075],[-0.10150268742777349],[1],[0],[0],[0.5609650000114925],"[""green""]",0,180,180,180,1,79,21,left,-0.4,0.4,images/green_box.png,79,Reward4.png,Reward2.png,Rewardnull.png,0,0,0,auditory_stim/coin4.wav,auditory_stim/coin2.wav,auditory_stim/silence_short.wav,1097,1.1,146989,20,female,0,2021-03-25_00h06.04.105,rl,2020.2.10,Linux x86_64,60,,,,,,
,,1,[-0.39356221109399075],[-0.10150268742777349],[1],[0],[0],[2.043904999998631],"[""blue""]",0,181,181,181,1,39,61,right,0.4,-0.4,images/blue_box.png,61,Reward2.png,Reward4.png,Rewardnull.png,0,0,0,auditory_stim/coin2.wav,auditory_stim/coin4.wav,auditory_stim/silence_short.wav,1173,1.2,146989,20,female,0,2021-03-25_00h06.04.105,rl,2020.2.10,Linux x86_64,60,,,,,,
,,1,[-0.39356221109399075],[-0.10150268742777349],[1],[0],[0],[0.9151949999939006],"[""blue""]",0,182,182,182,1,18,82,right,0.4,-0.4,images/blue_box.png,82,Reward1.png,Reward5.png,Rewardnull.png,0,0,0,auditory_stim/coin1.wav,auditory_stim/coin5.wav,auditory_stim/silence_short.wav,1172,1.2,146989,20,female,0,2021-03-25_00h06.04.105,rl,2020.2.10,Linux x86_64,60,,,,,,
,,1,[-0.39356221109399075],[-0.10150268742777349],[1],[0],[0],[1.1965249999918797],"[""blue""]",0,183,183,183,1,20,80,right,0.4,-0.4,images/blue_box.png,80,Reward1.png,Reward4.png,Rewardnull.png,0,0,0,auditory_stim/coin1.wav,auditory_stim/coin4.wav,auditory_stim/silence_short.wav,784,0.8,146989,20,female,0,2021-03-25_00h06.04.105,rl,2020.2.10,Linux x86_64,60,,,,,,
,,1,[-0.39356221109399075],[-0.10150268742777349],[1],[0],[0],[0.7773900000029244],"[""blue""]",0,184,184,184,1,76,24,right,0.4,-0.4,images/blue_box.png,24,Reward4.png,Reward2.png,Rewardnull.png,0,0,0,auditory_stim/coin4.wav,auditory_stim/coin2.wav,auditory_stim/silence_short.wav,1032,1,146989,20,female,0,2021-03-25_00h06.04.105,rl,2020.2.10,Linux x86_64,60,,,,,,
,,0,[-0.39356221109399075],[-0.10150268742777349],[1],[0],[0],[1.2274449999968056],"[""green""]",0,185,185,185,1,30,70,left,-0.4,0.4,images/blue_box.png,70,Reward2.png,Reward4.png,Rewardnull.png,0,0,0,auditory_stim/coin2.wav,auditory_stim/coin4.wav,auditory_stim/silence_short.wav,1113,1.1,146989,20,female,0,2021-03-25_00h06.04.105,rl,2020.2.10,Linux x86_64,60,,,,,,
,,0,[-0.39356221109399075],[-0.10150268742777349],[0],[0],[1],[0.6584149999982856],"[""green""]",0,186,186,186,1,86,14,left,-0.4,0.4,images/blue_box.png,14,Reward5.png,Reward1.png,Rewardnull.png,0,0,0,auditory_stim/coin5.wav,auditory_stim/coin1.wav,auditory_stim/silence_short.wav,1148,1.1,146989,20,female,0,2021-03-25_00h06.04.105,rl,2020.2.10,Linux x86_64,60,,,,,,
,,1,[],[],[],[],[],[],[],0,187,187,187,1,11,89,right,0.4,-0.4,images/blue_box.png,89,Reward1.png,Reward5.png,Rewardnull.png,0,0,0,auditory_stim/coin1.wav,auditory_stim/coin5.wav,auditory_stim/silence_short.wav,985,1,146989,20,female,0,2021-03-25_00h06.04.105,rl,2020.2.10,Linux x86_64,60,,,,,,
,,1,[],[],[],[],[],[],[],0,188,188,188,1,3,97,right,0.4,-0.4,images/blue_box.png,97,Reward1.png,Reward5.png,Rewardnull.png,0,0,0,auditory_stim/coin1.wav,auditory_stim/coin5.wav,auditory_stim/silence_short.wav,1039,1,146989,20,female,0,2021-03-25_00h06.04.105,rl,2020.2.10,Linux x86_64,60,,,,,,
,,0,[],[],[],[],[],[],[],0,189,189,189,1,88,12,left,-0.4,0.4,images/blue_box.png,12,Reward5.png,Reward1.png,Rewardnull.png,0,0,0,auditory_stim/coin5.wav,auditory_stim/coin1.wav,auditory_stim/silence_short.wav,1063,1.1,146989,20,female,0,2021-03-25_00h06.04.105,rl,2020.2.10,Linux x86_64,60,,,,,,
,,0,[],[],[],[],[],[],[],0,190,190,190,1,63,37,left,-0.4,0.4,images/blue_box.png,37,Reward4.png,Reward2.png,Rewardnull.png,0,0,0,auditory_stim/coin4.wav,auditory_stim/coin2.wav,auditory_stim/silence_short.wav,964,1,146989,20,female,0,2021-03-25_00h06.04.105,rl,2020.2.10,Linux x86_64,60,,,,,,
,,0,[],[],[],[],[],[],[],0,191,191,191,1,43,57,left,-0.4,0.4,images/blue_box.png,57,Reward3.png,Reward3.png,Rewardnull.png,0,0,0,auditory_stim/coin3.wav,auditory_stim/coin3.wav,auditory_stim/silence_short.wav,1056,1.1,146989,20,female,0,2021-03-25_00h06.04.105,rl,2020.2.10,Linux x86_64,60,,,,,,
,,1,[],[],[],[],[],[],[],0,192,192,192,1,52,48,left,-0.4,0.4,images/green_box.png,52,Reward3.png,Reward3.png,Rewardnull.png,0,0,0,auditory_stim/coin3.wav,auditory_stim/coin3.wav,auditory_stim/silence_short.wav,1037,1,146989,20,female,0,2021-03-25_00h06.04.105,rl,2020.2.10,Linux x86_64,60,,,,,,
,,1,[],[],[],[],[],[],[],0,193,193,193,1,92,8,left,-0.4,0.4,images/green_box.png,92,Reward5.png,Reward1.png,Rewardnull.png,0,0,0,auditory_stim/coin5.wav,auditory_stim/coin1.wav,auditory_stim/silence_short.wav,759,0.8,146989,20,female,0,2021-03-25_00h06.04.105,rl,2020.2.10,Linux x86_64,60,,,,,,
,,1,[],[],[],[],[],[],[],0,194,194,194,1,1,99,right,0.4,-0.4,images/blue_box.png,99,Reward1.png,Reward5.png,Rewardnull.png,0,0,0,auditory_stim/coin1.wav,auditory_stim/coin5.wav,auditory_stim/silence_short.wav,884,0.9,146989,20,female,0,2021-03-25_00h06.04.105,rl,2020.2.10,Linux x86_64,60,,,,,,
,,1,[],[],[],[],[],[],[],0,195,195,195,1,29,71,left,-0.4,0.4,images/green_box.png,29,Reward2.png,Reward4.png,Rewardnull.png,0,0,0,auditory_stim/coin2.wav,auditory_stim/coin4.wav,auditory_stim/silence_short.wav,1057,1.1,146989,20,female,0,2021-03-25_00h06.04.105,rl,2020.2.10,Linux x86_64,60,,,,,,
,,0,[],[],[],[],[],[],[],0,196,196,196,1,64,36,left,-0.4,0.4,images/blue_box.png,36,Reward4.png,Reward2.png,Rewardnull.png,0,0,0,auditory_stim/coin4.wav,auditory_stim/coin2.wav,auditory_stim/silence_short.wav,1023,1,146989,20,female,0,2021-03-25_00h06.04.105,rl,2020.2.10,Linux x86_64,60,,,,,,
,,0,[],[],[],[],[],[],[],0,197,197,197,1,92,8,right,0.4,-0.4,images/green_box.png,92,Reward5.png,Reward1.png,Rewardnull.png,0,0,0,auditory_stim/coin5.wav,auditory_stim/coin1.wav,auditory_stim/silence_short.wav,1027,1,146989,20,female,0,2021-03-25_00h06.04.105,rl,2020.2.10,Linux x86_64,60,,,,,,
,,1,[],[],[],[],[],[],[],0,198,198,198,1,10,90,left,-0.4,0.4,images/green_box.png,10,Reward1.png,Reward5.png,Rewardnull.png,0,0,0,auditory_stim/coin1.wav,auditory_stim/coin5.wav,auditory_stim/silence_short.wav,988,1,146989,20,female,0,2021-03-25_00h06.04.105,rl,2020.2.10,Linux x86_64,60,,,,,,
,,1,[],[],[],[],[],[],[],0,199,199,199,1,28,72,left,-0.4,0.4,images/blue_box.png,72,Reward2.png,Reward4.png,Rewardnull.png,0,0,0,auditory_stim/coin2.wav,auditory_stim/coin4.wav,auditory_stim/silence_short.wav,989,1,146989,20,female,0,2021-03-25_00h06.04.105,rl,2020.2.10,Linux x86_64,60,,,,,,
,,1,[0.5456313499133282],[-0.34639755272534667],[0],[0],[1],[0.11812500000769433],[],0,200,200,200,1,76,24,right,0.4,-0.4,images/green_box.png,76,Reward4.png,Reward2.png,Rewardnull.png,0,0,0,auditory_stim/coin4.wav,auditory_stim/coin2.wav,auditory_stim/silence_short.wav,1114,1.1,146989,20,female,0,2021-03-25_00h06.04.105,rl,2020.2.10,Linux x86_64,60,,,,,,
,,1,[],[],[],[],[],[],[],0,201,201,201,1,98,2,right,0.4,-0.4,images/green_box.png,98,Reward5.png,Reward1.png,Rewardnull.png,0,0,0,auditory_stim/coin5.wav,auditory_stim/coin1.wav,auditory_stim/silence_short.wav,938,0.9,146989,20,female,0,2021-03-25_00h06.04.105,rl,2020.2.10,Linux x86_64,60,,,,,,
,,1,[],[],[],[],[],[],[],0,202,202,202,1,74,26,right,0.4,-0.4,images/green_box.png,74,Reward4.png,Reward2.png,Rewardnull.png,0,0,0,auditory_stim/coin4.wav,auditory_stim/coin2.wav,auditory_stim/silence_short.wav,948,0.9,146989,20,female,0,2021-03-25_00h06.04.105,rl,2020.2.10,Linux x86_64,60,,,,,,
,,0,[],[],[],[],[],[],[],0,203,203,203,1,4,96,left,-0.4,0.4,images/green_box.png,4,Reward1.png,Reward5.png,Rewardnull.png,0,0,0,auditory_stim/coin1.wav,auditory_stim/coin5.wav,auditory_stim/silence_short.wav,1230,1.2,146989,20,female,0,2021-03-25_00h06.04.105,rl,2020.2.10,Linux x86_64,60,,,,,,
,,0,[],[],[],[],[],[],[],0,204,204,204,1,84,16,left,-0.4,0.4,images/green_box.png,84,Reward5.png,Reward1.png,Rewardnull.png,0,0,0,auditory_stim/coin5.wav,auditory_stim/coin1.wav,auditory_stim/silence_short.wav,772,0.8,146989,20,female,0,2021-03-25_00h06.04.105,rl,2020.2.10,Linux x86_64,60,,,,,,
,,1,[],[],[],[],[],[],[],0,205,205,205,1,45,55,right,0.4,-0.4,images/green_box.png,45,Reward3.png,Reward3.png,Rewardnull.png,0,0,0,auditory_stim/coin3.wav,auditory_stim/coin3.wav,auditory_stim/silence_short.wav,1045,1,146989,20,female,0,2021-03-25_00h06.04.105,rl,2020.2.10,Linux x86_64,60,,,,,,
,,0,[],[],[],[],[],[],[],0,206,206,206,1,63,37,left,-0.4,0.4,images/green_box.png,63,Reward4.png,Reward2.png,Rewardnull.png,0,0,0,auditory_stim/coin4.wav,auditory_stim/coin2.wav,auditory_stim/silence_short.wav,1149,1.1,146989,20,female,0,2021-03-25_00h06.04.105,rl,2020.2.10,Linux x86_64,60,,,,,,
,,0,[],[],[],[],[],[],[],0,207,207,207,1,23,77,left,-0.4,0.4,images/green_box.png,23,Reward2.png,Reward4.png,Rewardnull.png,0,0,0,auditory_stim/coin2.wav,auditory_stim/coin4.wav,auditory_stim/silence_short.wav,915,0.9,146989,20,female,0,2021-03-25_00h06.04.105,rl,2020.2.10,Linux x86_64,60,,,,,,
,,1,[],[],[],[],[],[],[],0,208,208,208,1,82,18,right,0.4,-0.4,images/green_box.png,82,Reward5.png,Reward1.png,Rewardnull.png,0,0,0,auditory_stim/coin5.wav,auditory_stim/coin1.wav,auditory_stim/silence_short.wav,1166,1.2,146989,20,female,0,2021-03-25_00h06.04.105,rl,2020.2.10,Linux x86_64,60,,,,,,
,,0,[],[],[],[],[],[],[],0,209,209,209,1,7,93,right,0.4,-0.4,images/blue_box.png,93,Reward1.png,Reward5.png,Rewardnull.png,0,0,0,auditory_stim/coin1.wav,auditory_stim/coin5.wav,auditory_stim/silence_short.wav,1096,1.1,146989,20,female,0,2021-03-25_00h06.04.105,rl,2020.2.10,Linux x86_64,60,,,,,,
,,1,[],[],[],[],[],[],[],0,210,210,210,1,45,55,left,-0.4,0.4,images/blue_box.png,55,Reward3.png,Reward3.png,Rewardnull.png,0,0,0,auditory_stim/coin3.wav,auditory_stim/coin3.wav,auditory_stim/silence_short.wav,777,0.8,146989,20,female,0,2021-03-25_00h06.04.105,rl,2020.2.10,Linux x86_64,60,,,,,,
,,0,[],[],[],[],[],[],[],0,211,211,211,1,28,72,left,-0.4,0.4,images/green_box.png,28,Reward2.png,Reward4.png,Rewardnull.png,0,0,0,auditory_stim/coin2.wav,auditory_stim/coin4.wav,auditory_stim/silence_short.wav,871,0.9,146989,20,female,0,2021-03-25_00h06.04.105,rl,2020.2.10,Linux x86_64,60,,,,,,
,,0,[],[],[],[],[],[],[],0,212,212,212,1,83,17,left,-0.4,0.4,images/green_box.png,83,Reward5.png,Reward1.png,Rewardnull.png,0,0,0,auditory_stim/coin5.wav,auditory_stim/coin1.wav,auditory_stim/silence_short.wav,922,0.9,146989,20,female,0,2021-03-25_00h06.04.105,rl,2020.2.10,Linux x86_64,60,,,,,,
,,0,[],[],[],[],[],[],[],0,213,213,213,1,50,50,right,0.4,-0.4,images/blue_box.png,50,Reward3.png,Reward3.png,Rewardnull.png,0,0,0,auditory_stim/coin3.wav,auditory_stim/coin3.wav,auditory_stim/silence_short.wav,1001,1,146989,20,female,0,2021-03-25_00h06.04.105,rl,2020.2.10,Linux x86_64,60,,,,,,
,,1,[],[],[],[],[],[],[],0,214,214,214,1,86,14,right,0.4,-0.4,images/green_box.png,86,Reward5.png,Reward1.png,Rewardnull.png,0,0,0,auditory_stim/coin5.wav,auditory_stim/coin1.wav,auditory_stim/silence_short.wav,1105,1.1,146989,20,female,0,2021-03-25_00h06.04.105,rl,2020.2.10,Linux x86_64,60,,,,,,
,,1,[],[],[],[],[],[],[],0,215,215,215,1,8,92,right,0.4,-0.4,images/green_box.png,8,Reward1.png,Reward5.png,Rewardnull.png,0,0,0,auditory_stim/coin1.wav,auditory_stim/coin5.wav,auditory_stim/silence_short.wav,929,0.9,146989,20,female,0,2021-03-25_00h06.04.105,rl,2020.2.10,Linux x86_64,60,,,,,,
,,0,[],[],[],[],[],[],[],0,216,216,216,1,0,100,right,0.4,-0.4,images/blue_box.png,100,Rewardnull.png,Reward5.png,Rewardnull.png,0,0,0,auditory_stim/coin1.wav,auditory_stim/coin5.wav,auditory_stim/silence_short.wav,774,0.8,146989,20,female,0,2021-03-25_00h06.04.105,rl,2020.2.10,Linux x86_64,60,,,,,,
,,1,[],[],[],[],[],[],[],0,217,217,217,1,37,63,right,0.4,-0.4,images/green_box.png,37,Reward2.png,Reward4.png,Rewardnull.png,0,0,0,auditory_stim/coin2.wav,auditory_stim/coin4.wav,auditory_stim/silence_short.wav,1015,1,146989,20,female,0,2021-03-25_00h06.04.105,rl,2020.2.10,Linux x86_64,60,,,,,,
,,1,[],[],[],[],[],[],[],0,218,218,218,1,84,16,left,-0.4,0.4,images/blue_box.png,16,Reward5.png,Reward1.png,Rewardnull.png,0,0,0,auditory_stim/coin5.wav,auditory_stim/coin1.wav,auditory_stim/silence_short.wav,756,0.8,146989,20,female,0,2021-03-25_00h06.04.105,rl,2020.2.10,Linux x86_64,60,,,,,,
,,0,[],[],[],[],[],[],[],0,219,219,219,1,70,30,left,-0.4,0.4,images/green_box.png,70,Reward4.png,Reward2.png,Rewardnull.png,0,0,0,auditory_stim/coin4.wav,auditory_stim/coin2.wav,auditory_stim/silence_short.wav,868,0.9,146989,20,female,0,2021-03-25_00h06.04.105,rl,2020.2.10,Linux x86_64,60,,,,,,
,,0,[],[],[],[],[],[],[],0,220,220,220,1,35,65,left,-0.4,0.4,images/green_box.png,35,Reward2.png,Reward4.png,Rewardnull.png,0,0,0,auditory_stim/coin2.wav,auditory_stim/coin4.wav,auditory_stim/silence_short.wav,1199,1.2,146989,20,female,0,2021-03-25_00h06.04.105,rl,2020.2.10,Linux x86_64,60,,,,,,
,,0,[],[],[],[],[],[],[],0,221,221,221,1,26,74,right,0.4,-0.4,images/blue_box.png,74,Reward2.png,Reward4.png,Rewardnull.png,0,0,0,auditory_stim/coin2.wav,auditory_stim/coin4.wav,auditory_stim/silence_short.wav,936,0.9,146989,20,female,0,2021-03-25_00h06.04.105,rl,2020.2.10,Linux x86_64,60,,,,,,
,,1,[],[],[],[],[],[],[],0,222,222,222,1,42,58,right,0.4,-0.4,images/green_box.png,42,Reward3.png,Reward3.png,Rewardnull.png,0,0,0,auditory_stim/coin3.wav,auditory_stim/coin3.wav,auditory_stim/silence_short.wav,1031,1,146989,20,female,0,2021-03-25_00h06.04.105,rl,2020.2.10,Linux x86_64,60,,,,,,
,,0,[],[],[],[],[],[],[],0,223,223,223,1,87,13,right,0.4,-0.4,images/blue_box.png,13,Reward5.png,Reward1.png,Rewardnull.png,0,0,0,auditory_stim/coin5.wav,auditory_stim/coin1.wav,auditory_stim/silence_short.wav,903,0.9,146989,20,female,0,2021-03-25_00h06.04.105,rl,2020.2.10,Linux x86_64,60,,,,,,
,,1,[],[],[],[],[],[],[],0,224,224,224,1,55,45,right,0.4,-0.4,images/green_box.png,55,Reward3.png,Reward3.png,Rewardnull.png,0,0,0,auditory_stim/coin3.wav,auditory_stim/coin3.wav,auditory_stim/silence_short.wav,1217,1.2,146989,20,female,0,2021-03-25_00h06.04.105,rl,2020.2.10,Linux x86_64,60,,,,,,
,,0,[],[],[],[],[],[],[],0,225,225,225,1,32,68,left,-0.4,0.4,images/green_box.png,32,Reward2.png,Reward4.png,Rewardnull.png,0,0,0,auditory_stim/coin2.wav,auditory_stim/coin4.wav,auditory_stim/silence_short.wav,1233,1.2,146989,20,female,0,2021-03-25_00h06.04.105,rl,2020.2.10,Linux x86_64,60,,,,,,
,,1,[],[],[],[],[],[],[],0,226,226,226,1,1,99,right,0.4,-0.4,images/green_box.png,1,Reward1.png,Reward5.png,Rewardnull.png,0,0,0,auditory_stim/coin1.wav,auditory_stim/coin5.wav,auditory_stim/silence_short.wav,1059,1.1,146989,20,female,0,2021-03-25_00h06.04.105,rl,2020.2.10,Linux x86_64,60,,,,,,
,,0,[],[],[],[],[],[],[],0,227,227,227,1,70,30,left,-0.4,0.4,images/green_box.png,70,Reward4.png,Reward2.png,Rewardnull.png,0,0,0,auditory_stim/coin4.wav,auditory_stim/coin2.wav,auditory_stim/silence_short.wav,807,0.8,146989,20,female,0,2021-03-25_00h06.04.105,rl,2020.2.10,Linux x86_64,60,,,,,,
,,1,[],[],[],[],[],[],[],0,228,228,228,1,17,83,right,0.4,-0.4,images/green_box.png,17,Reward1.png,Reward5.png,Rewardnull.png,0,0,0,auditory_stim/coin1.wav,auditory_stim/coin5.wav,auditory_stim/silence_short.wav,1070,1.1,146989,20,female,0,2021-03-25_00h06.04.105,rl,2020.2.10,Linux x86_64,60,,,,,,
,,0,[],[],[],[],[],[],[],0,229,229,229,1,42,58,left,-0.4,0.4,images/green_box.png,42,Reward3.png,Reward3.png,Rewardnull.png,0,0,0,auditory_stim/coin3.wav,auditory_stim/coin3.wav,auditory_stim/silence_short.wav,1122,1.1,146989,20,female,0,2021-03-25_00h06.04.105,rl,2020.2.10,Linux x86_64,60,,,,,,
,,1,[],[],[],[],[],[],[],0,230,230,230,1,12,88,left,-0.4,0.4,images/blue_box.png,88,Reward1.png,Reward5.png,Rewardnull.png,0,0,0,auditory_stim/coin1.wav,auditory_stim/coin5.wav,auditory_stim/silence_short.wav,958,1,146989,20,female,0,2021-03-25_00h06.04.105,rl,2020.2.10,Linux x86_64,60,,,,,,
,,1,[],[],[],[],[],[],[],0,231,231,231,1,35,65,left,-0.4,0.4,images/blue_box.png,65,Reward2.png,Reward4.png,Rewardnull.png,0,0,0,auditory_stim/coin2.wav,auditory_stim/coin4.wav,auditory_stim/silence_short.wav,966,1,146989,20,female,0,2021-03-25_00h06.04.105,rl,2020.2.10,Linux x86_64,60,,,,,,
,,1,[],[],[],[],[],[],[],0,232,232,232,1,67,33,left,-0.4,0.4,images/blue_box.png,33,Reward4.png,Reward2.png,Rewardnull.png,0,0,0,auditory_stim/coin4.wav,auditory_stim/coin2.wav,auditory_stim/silence_short.wav,874,0.9,146989,20,female,0,2021-03-25_00h06.04.105,rl,2020.2.10,Linux x86_64,60,,,,,,
,,1,[],[],[],[],[],[],[],0,233,233,233,1,24,76,left,-0.4,0.4,images/blue_box.png,76,Reward1.png,Reward4.png,Rewardnull.png,0,0,0,auditory_stim/coin2.wav,auditory_stim/coin4.wav,auditory_stim/silence_short.wav,1208,1.2,146989,20,female,0,2021-03-25_00h06.04.105,rl,2020.2.10,Linux x86_64,60,,,,,,
,,1,[],[],[],[],[],[],[],0,234,234,234,1,3,97,left,-0.4,0.4,images/blue_box.png,97,Reward1.png,Reward5.png,Rewardnull.png,0,0,0,auditory_stim/coin1.wav,auditory_stim/coin5.wav,auditory_stim/silence_short.wav,965,1,146989,20,female,0,2021-03-25_00h06.04.105,rl,2020.2.10,Linux x86_64,60,,,,,,
,,0,[],[],[],[],[],[],[],0,235,235,235,1,36,64,right,0.4,-0.4,images/blue_box.png,64,Reward2.png,Reward4.png,Rewardnull.png,0,0,0,auditory_stim/coin2.wav,auditory_stim/coin4.wav,auditory_stim/silence_short.wav,1181,1.2,146989,20,female,0,2021-03-25_00h06.04.105,rl,2020.2.10,Linux x86_64,60,,,,,,
,,0,[],[],[],[],[],[],[],0,236,236,236,1,65,35,right,0.4,-0.4,images/blue_box.png,35,Reward4.png,Reward2.png,Rewardnull.png,0,0,0,auditory_stim/coin4.wav,auditory_stim/coin2.wav,auditory_stim/silence_short.wav,1203,1.2,146989,20,female,0,2021-03-25_00h06.04.105,rl,2020.2.10,Linux x86_64,60,,,,,,
,,0,[],[],[],[],[],[],[],0,237,237,237,1,34,66,right,0.4,-0.4,images/blue_box.png,66,Reward2.png,Reward4.png,Rewardnull.png,0,0,0,auditory_stim/coin2.wav,auditory_stim/coin4.wav,auditory_stim/silence_short.wav,1061,1.1,146989,20,female,0,2021-03-25_00h06.04.105,rl,2020.2.10,Linux x86_64,60,,,,,,
,,1,[],[],[],[],[],[],[],0,238,238,238,1,2,98,left,-0.4,0.4,images/blue_box.png,98,Reward1.png,Reward5.png,Rewardnull.png,0,0,0,auditory_stim/coin1.wav,auditory_stim/coin5.wav,auditory_stim/silence_short.wav,933,0.9,146989,20,female,0,2021-03-25_00h06.04.105,rl,2020.2.10,Linux x86_64,60,,,,,,
,,1,[],[],[],[],[],[],[],0,239,239,239,1,96,4,right,0.4,-0.4,images/green_box.png,96,Reward5.png,Reward1.png,Rewardnull.png,0,0,0,auditory_stim/coin5.wav,auditory_stim/coin1.wav,auditory_stim/silence_short.wav,765,0.8,146989,20,female,0,2021-03-25_00h06.04.105,rl,2020.2.10,Linux x86_64,60,,,,,,
,,1,[],[],[],[],[],[],[],0,240,240,240,1,43,57,left,-0.4,0.4,images/blue_box.png,57,Reward3.png,Reward3.png,Rewardnull.png,0,0,0,auditory_stim/coin3.wav,auditory_stim/coin3.wav,auditory_stim/silence_short.wav,1021,1,146989,20,female,0,2021-03-25_00h06.04.105,rl,2020.2.10,Linux x86_64,60,,,,,,
,,1,[],[],[],[],[],[],[],0,241,241,241,1,55,45,right,0.4,-0.4,images/green_box.png,55,Reward3.png,Reward3.png,Rewardnull.png,0,0,0,auditory_stim/coin3.wav,auditory_stim/coin3.wav,auditory_stim/silence_short.wav,866,0.9,146989,20,female,0,2021-03-25_00h06.04.105,rl,2020.2.10,Linux x86_64,60,,,,,,
,,1,[],[],[],[],[],[],[],0,242,242,242,1,70,30,left,-0.4,0.4,images/blue_box.png,30,Reward4.png,Reward2.png,Rewardnull.png,0,0,0,auditory_stim/coin4.wav,auditory_stim/coin2.wav,auditory_stim/silence_short.wav,841,0.8,146989,20,female,0,2021-03-25_00h06.04.105,rl,2020.2.10,Linux x86_64,60,,,,,,
,,0,[],[],[],[],[],[],[],0,243,243,243,1,32,68,right,0.4,-0.4,images/blue_box.png,68,Reward2.png,Reward4.png,Rewardnull.png,0,0,0,auditory_stim/coin2.wav,auditory_stim/coin4.wav,auditory_stim/silence_short.wav,1085,1.1,146989,20,female,0,2021-03-25_00h06.04.105,rl,2020.2.10,Linux x86_64,60,,,,,,
,,0,[],[],[],[],[],[],[],0,244,244,244,1,4,96,right,0.4,-0.4,images/blue_box.png,96,Reward1.png,Reward5.png,Rewardnull.png,0,0,0,auditory_stim/coin1.wav,auditory_stim/coin5.wav,auditory_stim/silence_short.wav,783,0.8,146989,20,female,0,2021-03-25_00h06.04.105,rl,2020.2.10,Linux x86_64,60,,,,,,
,,0,[],[],[],[],[],[],[],0,245,245,245,1,7,93,right,0.4,-0.4,images/blue_box.png,93,Reward1.png,Reward5.png,Rewardnull.png,0,0,0,auditory_stim/coin1.wav,auditory_stim/coin5.wav,auditory_stim/silence_short.wav,855,0.9,146989,20,female,0,2021-03-25_00h06.04.105,rl,2020.2.10,Linux x86_64,60,,,,,,
,,1,[],[],[],[],[],[],[],0,246,246,246,1,50,50,left,-0.4,0.4,images/blue_box.png,50,Reward3.png,Reward3.png,Rewardnull.png,0,0,0,auditory_stim/coin3.wav,auditory_stim/coin3.wav,auditory_stim/silence_short.wav,1079,1.1,146989,20,female,0,2021-03-25_00h06.04.105,rl,2020.2.10,Linux x86_64,60,,,,,,
,,1,[],[],[],[],[],[],[],0,247,247,247,1,71,29,right,0.4,-0.4,images/green_box.png,71,Reward4.png,Reward2.png,Rewardnull.png,0,0,0,auditory_stim/coin4.wav,auditory_stim/coin2.wav,auditory_stim/silence_short.wav,1078,1.1,146989,20,female,0,2021-03-25_00h06.04.105,rl,2020.2.10,Linux x86_64,60,,,,,,
,,1,[],[],[],[],[],[],[],0,248,248,248,1,65,35,left,-0.4,0.4,images/blue_box.png,35,Reward4.png,Reward2.png,Rewardnull.png,0,0,0,auditory_stim/coin4.wav,auditory_stim/coin2.wav,auditory_stim/silence_short.wav,1213,1.2,146989,20,female,0,2021-03-25_00h06.04.105,rl,2020.2.10,Linux x86_64,60,,,,,,
,,1,[],[],[],[],[],[],[],0,249,249,249,1,99,1,left,-0.4,0.4,images/blue_box.png,1,Reward5.png,Reward1.png,Rewardnull.png,0,0,0,auditory_stim/coin5.wav,auditory_stim/coin1.wav,auditory_stim/silence_short.wav,790,0.8,146989,20,female,0,2021-03-25_00h06.04.105,rl,2020.2.10,Linux x86_64,60,,,,,,
,,1,[],[],[],[],[],[],[],0,250,250,250,1,25,75,left,-0.4,0.4,images/blue_box.png,75,Reward2.png,Reward4.png,Rewardnull.png,0,0,0,auditory_stim/coin2.wav,auditory_stim/coin4.wav,auditory_stim/silence_short.wav,1041,1,146989,20,female,0,2021-03-25_00h06.04.105,rl,2020.2.10,Linux x86_64,60,,,,,,
,,0,[],[],[],[],[],[],[],0,251,251,251,1,14,86,left,-0.4,0.4,images/green_box.png,14,Reward1.png,Reward5.png,Rewardnull.png,0,0,0,auditory_stim/coin1.wav,auditory_stim/coin5.wav,auditory_stim/silence_short.wav,819,0.8,146989,20,female,0,2021-03-25_00h06.04.105,rl,2020.2.10,Linux x86_64,60,,,,,,
,,1,[],[],[],[],[],[],[],0,252,252,252,1,27,73,left,-0.4,0.4,images/blue_box.png,73,Reward2.png,Reward4.png,Rewardnull.png,0,0,0,auditory_stim/coin2.wav,auditory_stim/coin4.wav,auditory_stim/silence_short.wav,1226,1.2,146989,20,female,0,2021-03-25_00h06.04.105,rl,2020.2.10,Linux x86_64,60,,,,,,
,,0,[],[],[],[],[],[],[],0,253,253,253,1,65,35,right,0.4,-0.4,images/blue_box.png,35,Reward4.png,Reward2.png,Rewardnull.png,0,0,0,auditory_stim/coin4.wav,auditory_stim/coin2.wav,auditory_stim/silence_short.wav,1012,1,146989,20,female,0,2021-03-25_00h06.04.105,rl,2020.2.10,Linux x86_64,60,,,,,,
,,0,[],[],[],[],[],[],[],0,254,254,254,1,34,66,right,0.4,-0.4,images/blue_box.png,66,Reward2.png,Reward4.png,Rewardnull.png,0,0,0,auditory_stim/coin2.wav,auditory_stim/coin4.wav,auditory_stim/silence_short.wav,1151,1.2,146989,20,female,0,2021-03-25_00h06.04.105,rl,2020.2.10,Linux x86_64,60,,,,,,
,,1,[],[],[],[],[],[],[],0,255,255,255,1,24,76,left,-0.4,0.4,images/blue_box.png,76,Reward2.png,Reward4.png,Rewardnull.png,0,0,0,auditory_stim/coin2.wav,auditory_stim/coin4.wav,auditory_stim/silence_short.wav,1010,1,146989,20,female,0,2021-03-25_00h06.04.105,rl,2020.2.10,Linux x86_64,60,,,,,,
,,0,[],[],[],[],[],[],[],0,256,256,256,1,81,19,right,0.4,-0.4,images/blue_box.png,19,Reward5.png,Reward1.png,Rewardnull.png,0,0,0,auditory_stim/coin5.wav,auditory_stim/coin1.wav,auditory_stim/silence_short.wav,1111,1.1,146989,20,female,0,2021-03-25_00h06.04.105,rl,2020.2.10,Linux x86_64,60,,,,,,
,,0,[],[],[],[],[],[],[],0,257,257,257,1,39,61,right,0.4,-0.4,images/blue_box.png,61,Reward2.png,Reward4.png,Rewardnull.png,0,0,0,auditory_stim/coin2.wav,auditory_stim/coin4.wav,auditory_stim/silence_short.wav,1250,1.3,146989,20,female,0,2021-03-25_00h06.04.105,rl,2020.2.10,Linux x86_64,60,,,,,,
,,0,[],[],[],[],[],[],[],0,258,258,258,1,19,81,right,0.4,-0.4,images/blue_box.png,81,Reward1.png,Reward5.png,Rewardnull.png,0,0,0,auditory_stim/coin1.wav,auditory_stim/coin5.wav,auditory_stim/silence_short.wav,1175,1.2,146989,20,female,0,2021-03-25_00h06.04.105,rl,2020.2.10,Linux x86_64,60,,,,,,
,,0,[],[],[],[],[],[],[],0,259,259,259,1,16,84,right,0.4,-0.4,images/blue_box.png,84,Reward1.png,Reward5.png,Rewardnull.png,0,0,0,auditory_stim/coin1.wav,auditory_stim/coin5.wav,auditory_stim/silence_short.wav,1048,1,146989,20,female,0,2021-03-25_00h06.04.105,rl,2020.2.10,Linux x86_64,60,,,,,,
,,0,[],[],[],[],[],[],[],0,260,260,260,1,12,88,left,-0.4,0.4,images/green_box.png,12,Reward1.png,Reward5.png,Rewardnull.png,0,0,0,auditory_stim/coin1.wav,auditory_stim/coin5.wav,auditory_stim/silence_short.wav,940,0.9,146989,20,female,0,2021-03-25_00h06.04.105,rl,2020.2.10,Linux x86_64,60,,,,,,
,,0,[],[],[],[],[],[],[],0,261,261,261,1,27,73,right,0.4,-0.4,images/blue_box.png,73,Reward2.png,Reward4.png,Rewardnull.png,0,0,0,auditory_stim/coin2.wav,auditory_stim/coin4.wav,auditory_stim/silence_short.wav,904,0.9,146989,20,female,0,2021-03-25_00h06.04.105,rl,2020.2.10,Linux x86_64,60,,,,,,
,,0,[],[],[],[],[],[],[],0,262,262,262,1,80,20,left,-0.4,0.4,images/green_box.png,80,Reward4.png,Reward1.png,Rewardnull.png,0,0,0,auditory_stim/coin4.wav,auditory_stim/coin1.wav,auditory_stim/silence_short.wav,1058,1.1,146989,20,female,0,2021-03-25_00h06.04.105,rl,2020.2.10,Linux x86_64,60,,,,,,
,,1,[],[],[],[],[],[],[],0,263,263,263,1,16,84,right,0.4,-0.4,images/green_box.png,16,Reward1.png,Reward5.png,Rewardnull.png,0,0,0,auditory_stim/coin1.wav,auditory_stim/coin5.wav,auditory_stim/silence_short.wav,1139,1.1,146989,20,female,0,2021-03-25_00h06.04.105,rl,2020.2.10,Linux x86_64,60,,,,,,
,,1,[],[],[],[],[],[],[],0,264,264,264,1,66,34,right,0.4,-0.4,images/green_box.png,66,Reward4.png,Reward2.png,Rewardnull.png,0,0,0,auditory_stim/coin4.wav,auditory_stim/coin2.wav,auditory_stim/silence_short.wav,1218,1.2,146989,20,female,0,2021-03-25_00h06.04.105,rl,2020.2.10,Linux x86_64,60,,,,,,
,,0,[],[],[],[],[],[],[],0,265,265,265,1,61,39,left,-0.4,0.4,images/green_box.png,61,Reward4.png,Reward2.png,Rewardnull.png,0,0,0,auditory_stim/coin4.wav,auditory_stim/coin2.wav,auditory_stim/silence_short.wav,1209,1.2,146989,20,female,0,2021-03-25_00h06.04.105,rl,2020.2.10,Linux x86_64,60,,,,,,
,,1,[],[],[],[],[],[],[],0,266,266,266,1,58,42,left,-0.4,0.4,images/blue_box.png,42,Reward3.png,Reward3.png,Rewardnull.png,0,0,0,auditory_stim/coin3.wav,auditory_stim/coin3.wav,auditory_stim/silence_short.wav,1206,1.2,146989,20,female,0,2021-03-25_00h06.04.105,rl,2020.2.10,Linux x86_64,60,,,,,,
,,0,[],[],[],[],[],[],[],0,267,267,267,1,17,83,left,-0.4,0.4,images/green_box.png,17,Reward1.png,Reward5.png,Rewardnull.png,0,0,0,auditory_stim/coin1.wav,auditory_stim/coin5.wav,auditory_stim/silence_short.wav,1033,1,146989,20,female,0,2021-03-25_00h06.04.105,rl,2020.2.10,Linux x86_64,60,,,,,,
,,1,[],[],[],[],[],[],[],0,268,268,268,1,73,27,right,0.4,-0.4,images/green_box.png,73,Reward4.png,Reward2.png,Rewardnull.png,0,0,0,auditory_stim/coin4.wav,auditory_stim/coin2.wav,auditory_stim/silence_short.wav,941,0.9,146989,20,female,0,2021-03-25_00h06.04.105,rl,2020.2.10,Linux x86_64,60,,,,,,
,,1,[],[],[],[],[],[],[],0,269,269,269,1,57,43,right,0.4,-0.4,images/green_box.png,57,Reward3.png,Reward3.png,Rewardnull.png,0,0,0,auditory_stim/coin3.wav,auditory_stim/coin3.wav,auditory_stim/silence_short.wav,844,0.8,146989,20,female,0,2021-03-25_00h06.04.105,rl,2020.2.10,Linux x86_64,60,,,,,,
,,1,[],[],[],[],[],[],[],0,270,270,270,1,96,4,right,0.4,-0.4,images/green_box.png,96,Reward5.png,Reward1.png,Rewardnull.png,0,0,0,auditory_stim/coin5.wav,auditory_stim/coin1.wav,auditory_stim/silence_short.wav,960,1,146989,20,female,0,2021-03-25_00h06.04.105,rl,2020.2.10,Linux x86_64,60,,,,,,
,,1,[],[],[],[],[],[],[],0,271,271,271,1,83,17,right,0.4,-0.4,images/green_box.png,83,Reward5.png,Reward1.png,Rewardnull.png,0,0,0,auditory_stim/coin5.wav,auditory_stim/coin1.wav,auditory_stim/silence_short.wav,993,1,146989,20,female,0,2021-03-25_00h06.04.105,rl,2020.2.10,Linux x86_64,60,,,,,,
,,0,[],[],[],[],[],[],[],0,272,272,272,1,91,9,left,-0.4,0.4,images/green_box.png,91,Reward5.png,Reward1.png,Rewardnull.png,0,0,0,auditory_stim/coin5.wav,auditory_stim/coin1.wav,auditory_stim/silence_short.wav,1220,1.2,146989,20,female,0,2021-03-25_00h06.04.105,rl,2020.2.10,Linux x86_64,60,,,,,,
,,1,[],[],[],[],[],[],[],0,273,273,273,1,29,71,right,0.4,-0.4,images/green_box.png,29,Reward2.png,Reward4.png,Rewardnull.png,0,0,0,auditory_stim/coin2.wav,auditory_stim/coin4.wav,auditory_stim/silence_short.wav,1049,1,146989,20,female,0,2021-03-25_00h06.04.105,rl,2020.2.10,Linux x86_64,60,,,,,,
,,1,[],[],[],[],[],[],[],0,274,274,274,1,72,28,right,0.4,-0.4,images/green_box.png,72,Reward4.png,Reward2.png,Rewardnull.png,0,0,0,auditory_stim/coin4.wav,auditory_stim/coin2.wav,auditory_stim/silence_short.wav,997,1,146989,20,female,0,2021-03-25_00h06.04.105,rl,2020.2.10,Linux x86_64,60,,,,,,
,,1,[],[],[],[],[],[],[],0,275,275,275,1,49,51,left,-0.4,0.4,images/blue_box.png,51,Reward3.png,Reward3.png,Rewardnull.png,0,0,0,auditory_stim/coin3.wav,auditory_stim/coin3.wav,auditory_stim/silence_short.wav,764,0.8,146989,20,female,0,2021-03-25_00h06.04.105,rl,2020.2.10,Linux x86_64,60,,,,,,
,,1,[],[],[],[],[],[],[],0,276,276,276,1,64,36,right,0.4,-0.4,images/green_box.png,64,Reward4.png,Reward2.png,Rewardnull.png,0,0,0,auditory_stim/coin4.wav,auditory_stim/coin2.wav,auditory_stim/silence_short.wav,1102,1.1,146989,20,female,0,2021-03-25_00h06.04.105,rl,2020.2.10,Linux x86_64,60,,,,,,
,,1,[],[],[],[],[],[],[],0,277,277,277,1,59,41,right,0.4,-0.4,images/green_box.png,59,Reward3.png,Reward3.png,Rewardnull.png,0,0,0,auditory_stim/coin3.wav,auditory_stim/coin3.wav,auditory_stim/silence_short.wav,947,0.9,146989,20,female,0,2021-03-25_00h06.04.105,rl,2020.2.10,Linux x86_64,60,,,,,,
,,1,[],[],[],[],[],[],[],0,278,278,278,1,58,42,right,0.4,-0.4,images/green_box.png,58,Reward3.png,Reward3.png,Rewardnull.png,0,0,0,auditory_stim/coin3.wav,auditory_stim/coin3.wav,auditory_stim/silence_short.wav,814,0.8,146989,20,female,0,2021-03-25_00h06.04.105,rl,2020.2.10,Linux x86_64,60,,,,,,
,,0,[],[],[],[],[],[],[],0,279,279,279,1,54,46,left,-0.4,0.4,images/green_box.png,54,Reward3.png,Reward3.png,Rewardnull.png,0,0,0,auditory_stim/coin3.wav,auditory_stim/coin3.wav,auditory_stim/silence_short.wav,962,1,146989,20,female,0,2021-03-25_00h06.04.105,rl,2020.2.10,Linux x86_64,60,,,,,,
,,0,[],[],[],[],[],[],[],0,280,280,280,1,81,19,left,-0.4,0.4,images/green_box.png,81,Reward5.png,Reward1.png,Rewardnull.png,0,0,0,auditory_stim/coin5.wav,auditory_stim/coin1.wav,auditory_stim/silence_short.wav,1077,1.1,146989,20,female,0,2021-03-25_00h06.04.105,rl,2020.2.10,Linux x86_64,60,,,,,,
,,0,[],[],[],[],[],[],[],0,281,281,281,1,1,99,left,-0.4,0.4,images/green_box.png,1,Reward1.png,Reward5.png,Rewardnull.png,0,0,0,auditory_stim/coin1.wav,auditory_stim/coin5.wav,auditory_stim/silence_short.wav,1016,1,146989,20,female,0,2021-03-25_00h06.04.105,rl,2020.2.10,Linux x86_64,60,,,,,,
,,1,[],[],[],[],[],[],[],0,282,282,282,1,89,11,right,0.4,-0.4,images/green_box.png,89,Reward5.png,Reward1.png,Rewardnull.png,0,0,0,auditory_stim/coin5.wav,auditory_stim/coin1.wav,auditory_stim/silence_short.wav,1098,1.1,146989,20,female,0,2021-03-25_00h06.04.105,rl,2020.2.10,Linux x86_64,60,,,,,,
,,1,[],[],[],[],[],[],[],0,283,283,283,1,61,39,right,0.4,-0.4,images/green_box.png,61,Reward4.png,Reward2.png,Rewardnull.png,0,0,0,auditory_stim/coin4.wav,auditory_stim/coin2.wav,auditory_stim/silence_short.wav,818,0.8,146989,20,female,0,2021-03-25_00h06.04.105,rl,2020.2.10,Linux x86_64,60,,,,,,
,,1,[],[],[],[],[],[],[],0,284,284,284,1,21,79,right,0.4,-0.4,images/green_box.png,21,Reward2.png,Reward4.png,Rewardnull.png,0,0,0,auditory_stim/coin2.wav,auditory_stim/coin4.wav,auditory_stim/silence_short.wav,889,0.9,146989,20,female,0,2021-03-25_00h06.04.105,rl,2020.2.10,Linux x86_64,60,,,,,,
,,0,[],[],[],[],[],[],[],0,285,285,285,1,66,34,left,-0.4,0.4,images/green_box.png,66,Reward4.png,Reward2.png,Rewardnull.png,0,0,0,auditory_stim/coin4.wav,auditory_stim/coin2.wav,auditory_stim/silence_short.wav,991,1,146989,20,female,0,2021-03-25_00h06.04.105,rl,2020.2.10,Linux x86_64,60,,,,,,
,,1,[],[],[],[],[],[],[],0,286,286,286,1,28,72,left,-0.4,0.4,images/blue_box.png,72,Reward2.png,Reward4.png,Rewardnull.png,0,0,0,auditory_stim/coin2.wav,auditory_stim/coin4.wav,auditory_stim/silence_short.wav,1025,1,146989,20,female,0,2021-03-25_00h06.04.105,rl,2020.2.10,Linux x86_64,60,,,,,,
,,0,[],[],[],[],[],[],[],0,287,287,287,1,70,30,right,0.4,-0.4,images/blue_box.png,30,Reward4.png,Reward2.png,Rewardnull.png,0,0,0,auditory_stim/coin4.wav,auditory_stim/coin2.wav,auditory_stim/silence_short.wav,1022,1,146989,20,female,0,2021-03-25_00h06.04.105,rl,2020.2.10,Linux x86_64,60,,,,,,
,,1,[],[],[],[],[],[],[],0,288,288,288,1,12,88,right,0.4,-0.4,images/green_box.png,12,Reward1.png,Reward5.png,Rewardnull.png,0,0,0,auditory_stim/coin1.wav,auditory_stim/coin5.wav,auditory_stim/silence_short.wav,916,0.9,146989,20,female,0,2021-03-25_00h06.04.105,rl,2020.2.10,Linux x86_64,60,,,,,,
,,0,[],[],[],[],[],[],[],0,289,289,289,1,71,29,left,-0.4,0.4,images/green_box.png,71,Reward4.png,Reward2.png,Rewardnull.png,0,0,0,auditory_stim/coin4.wav,auditory_stim/coin2.wav,auditory_stim/silence_short.wav,767,0.8,146989,20,female,0,2021-03-25_00h06.04.105,rl,2020.2.10,Linux x86_64,60,,,,,,
,,,,,,,,,,,,,,,,,,,,,,,,,,,,,,,,,146989,20,female,0,2021-03-25_00h06.04.105,rl,2020.2.10,Linux x86_64,60,0,0,0,1,1,uncued.csv
,,0,[],[],[],[],[],[],[],0,0,0,0,1,20,80,right,0.4,-0.4,images/blue_box.png,80,Reward1.png,Reward4.png,Reward4.png,0.1,0.4,0.4,auditory_stim/coin1.wav,auditory_stim/coin4.wav,auditory_stim/coin4.wav,954,1,146989,20,female,0,2021-03-25_00h06.04.105,rl,2020.2.10,Linux x86_64,60,,,,,,
,,0,[],[],[],[],[],[],[],0,1,1,1,1,43,57,left,-0.4,0.4,images/green_box.png,43,Reward3.png,Reward3.png,Reward3.png,0.05,0.3,0.3,auditory_stim/coin3.wav,auditory_stim/coin3.wav,auditory_stim/coin3.wav,813,0.8,146989,20,female,0,2021-03-25_00h06.04.105,rl,2020.2.10,Linux x86_64,60,,,,,,
