thisCond,reward_green,reward_blue,green_pos,pg,pb,corrAns,corrAmount,cash_green,cash_blue,cash_corr,cash_size,cashsize_h,cashsize_v,auditory_stim_green_path,auditory_stim_blue_path,audio_corr,ITI,ITI_s,outerLoop.thisRepN,outerLoop.thisTrialN,outerLoop.thisN,outerLoop.thisIndex,trials.thisRepN,trials.thisTrialN,trials.thisN,trials.thisIndex,instructions.started,instructions.stopped,key_resp.keys,key_resp.rt,key_resp.started,key_resp.stopped,green_example.started,green_example.stopped,blue_example.started,blue_example.stopped,question.started,question.stopped,pointbar.started,pointbar.stopped,purplebar.started,purplebar.stopped,goldbar.started,goldbar.stopped,leftamount.started,leftamount.stopped,rightamount.started,rightamount.stopped,correct,question_mark.started,question_mark.stopped,blue.started,blue.stopped,green.started,green.stopped,response.x,response.y,response.leftButton,response.midButton,response.rightButton,response.time,response.clicked_name,response.started,response.stopped,blue_reward.started,blue_reward.stopped,green_reward.started,green_reward.stopped,purple_marker.started,purple_marker.stopped,gold_marker.started,gold_marker.stopped,points_marker.started,points_marker.stopped,fb_sound.started,fb_sound.stopped,fb_correct.started,fb_correct.stopped,feedbackIm.started,feedbackIm.stopped,red_frame.started,red_frame.stopped,fb_blue.started,fb_blue.stopped,fb_green.started,fb_green.stopped,fb_blue_reward.started,fb_blue_reward.stopped,fb_green_reward.started,fb_green_reward.stopped,purple.started,purple.stopped,gold.started,gold.stopped,points.started,points.stopped,text.started,text.stopped,participant,age,gender,years of education,date,expName,psychopyVersion,frameRate,
,,,,,,,,,,,,,,,,,,,,,,,,,,,13.28102320000471,None,space,0.9210217999934684,13.28102320000471,None,,,,,,,,,,,,,,,,,,,,,,,,,,,,,,,,,,,,,,,,,,,,,,,,,,,,,,,,,,,,,,,,,,,,,,,2021_Mar_19_1334,rl,2020.2.10,59.89487252111673,
cued.csv,20,80,right,0.4,-0.4,images/blue_box.png,80,Reward1.png,Reward4.png,Reward4.png,0.1,0.4,0.4,auditory_stim/coin1.wav,auditory_stim/coin4.wav,auditory_stim/coin4.wav,954,1.0,0,0,0,0,0,0,0,0,,,,,,,13.28102320000471,None,13.28102320000471,None,13.28102320000471,None,13.28102320000471,None,13.28102320000471,None,13.28102320000471,None,13.28102320000471,None,13.28102320000471,None,1,14.428463100004592,None,14.428463100004592,None,14.428463100004592,None,"[0.3138888888888889, 0.3138888888888889, 0.3138888888888889, 0.3138888888888889, 0.3138888888888889, 0.3138888888888889, 0.3138888888888889, 0.3138888888888889, 0.3138888888888889, 0.3138888888888889, 0.3138888888888889, 0.3138888888888889, 0.3138888888888889, 0.3138888888888889, 0.3138888888888889, 0.3138888888888889, 0.3138888888888889, 0.3138888888888889, 0.3138888888888889, 0.3138888888888889, 0.3138888888888889, 0.3138888888888889, 0.3138888888888889, 0.3138888888888889, 0.3138888888888889, 0.3138888888888889, 0.3138888888888889, 0.3138888888888889, 0.3138888888888889, 0.3138888888888889, 0.3138888888888889, 0.3138888888888889, 0.3138888888888889, 0.3138888888888889, 0.3138888888888889, 0.3138888888888889, 0.3138888888888889, 0.3138888888888889, 0.3138888888888889, 0.3138888888888889, 0.3138888888888889, 0.3138888888888889, 0.3138888888888889, 0.3138888888888889, 0.3138888888888889, 0.3138888888888889, 0.3138888888888889, 0.3138888888888889, 0.3138888888888889, 0.3138888888888889, 0.3138888888888889, 0.3138888888888889, 0.3138888888888889, 0.3138888888888889, 0.3138888888888889, 0.3138888888888889, 0.3138888888888889, 0.3138888888888889, 0.3138888888888889, 0.3138888888888889, 0.3138888888888889, 0.3138888888888889, 0.3138888888888889, 0.3138888888888889, 0.3138888888888889, 0.3138888888888889, 0.3138888888888889, 0.3138888888888889, 0.3138888888888889, 0.3138888888888889, 0.3138888888888889, 0.3138888888888889, 0.3138888888888889, 0.3138888888888889, 0.3138888888888889, 0.3138888888888889, 0.26666666666666666, 0.16527777777777777, 0.0125, -0.12916666666666668, -0.25, -0.35694444444444445, -0.41944444444444445, -0.4638888888888889, -0.46944444444444444, -0.4722222222222222, -0.4722222222222222, -0.46805555555555556, -0.4597222222222222, -0.44722222222222224, -0.43194444444444446, -0.4097222222222222, -0.3875, -0.37222222222222223, -0.36527777777777776, -0.3625, -0.3625, -0.3611111111111111, -0.3611111111111111, -0.3611111111111111, -0.3611111111111111, -0.3597222222222222, -0.3597222222222222, -0.3597222222222222, -0.3597222222222222, -0.3597222222222222, -0.3597222222222222, -0.3597222222222222, -0.3597222222222222, -0.3597222222222222]","[-0.30694444444444446, -0.30694444444444446, -0.30694444444444446, -0.30694444444444446, -0.30694444444444446, -0.30694444444444446, -0.30694444444444446, -0.30694444444444446, -0.30694444444444446, -0.30694444444444446, -0.30694444444444446, -0.30694444444444446, -0.30694444444444446, -0.30694444444444446, -0.30694444444444446, -0.30694444444444446, -0.30694444444444446, -0.30694444444444446, -0.30694444444444446, -0.30694444444444446, -0.30694444444444446, -0.30694444444444446, -0.30694444444444446, -0.30694444444444446, -0.30694444444444446, -0.30694444444444446, -0.30694444444444446, -0.30694444444444446, -0.30694444444444446, -0.30694444444444446, -0.30694444444444446, -0.30694444444444446, -0.30694444444444446, -0.30694444444444446, -0.30694444444444446, -0.30694444444444446, -0.30694444444444446, -0.30694444444444446, -0.30694444444444446, -0.30694444444444446, -0.30694444444444446, -0.30694444444444446, -0.30694444444444446, -0.30694444444444446, -0.30694444444444446, -0.30694444444444446, -0.30694444444444446, -0.30694444444444446, -0.30694444444444446, -0.30694444444444446, -0.30694444444444446, -0.30694444444444446, -0.30694444444444446, -0.30694444444444446, -0.30694444444444446, -0.30694444444444446, -0.30694444444444446, -0.30694444444444446, -0.30694444444444446, -0.30694444444444446, -0.30694444444444446, -0.30694444444444446, -0.30694444444444446, -0.30694444444444446, -0.30694444444444446, -0.30694444444444446, -0.30694444444444446, -0.30694444444444446, -0.30694444444444446, -0.30694444444444446, -0.30694444444444446, -0.30694444444444446, -0.30694444444444446, -0.30694444444444446, -0.30694444444444446, -0.30694444444444446, -0.30972222222222223, -0.30833333333333335, -0.2902777777777778, -0.24722222222222223, -0.20555555555555555, -0.15833333333333333, -0.12916666666666668, -0.09444444444444444, -0.0875, -0.07222222222222222, -0.043055555555555555, -0.025, -0.011111111111111112, 0.0, 0.006944444444444444, 0.0125, 0.016666666666666666, 0.018055555555555554, 0.018055555555555554, 0.018055555555555554, 0.013888888888888888, 0.006944444444444444, -0.002777777777777778, -0.004166666666666667, -0.006944444444444444, -0.009722222222222222, -0.009722222222222222, -0.009722222222222222, -0.009722222222222222, -0.009722222222222222, -0.009722222222222222, -0.009722222222222222, -0.009722222222222222, -0.009722222222222222]","[0, 0, 0, 0, 0, 0, 0, 0, 0, 0, 0, 0, 0, 0, 0, 0, 0, 0, 0, 0, 0, 0, 0, 0, 0, 0, 0, 0, 0, 0, 0, 0, 0, 0, 0, 0, 0, 0, 0, 0, 0, 0, 0, 0, 0, 0, 0, 0, 0, 0, 0, 0, 0, 0, 0, 0, 0, 0, 0, 0, 0, 0, 0, 0, 0, 0, 0, 0, 0, 0, 0, 0, 0, 0, 0, 0, 0, 0, 0, 0, 0, 0, 0, 0, 0, 0, 0, 0, 0, 0, 0, 0, 0, 0, 0, 0, 0, 0, 0, 0, 0, 0, 0, 0, 0, 0, 0, 0, 0, 1]","[0, 0, 0, 0, 0, 0, 0, 0, 0, 0, 0, 0, 0, 0, 0, 0, 0, 0, 0, 0, 0, 0, 0, 0, 0, 0, 0, 0, 0, 0, 0, 0, 0, 0, 0, 0, 0, 0, 0, 0, 0, 0, 0, 0, 0, 0, 0, 0, 0, 0, 0, 0, 0, 0, 0, 0, 0, 0, 0, 0, 0, 0, 0, 0, 0, 0, 0, 0, 0, 0, 0, 0, 0, 0, 0, 0, 0, 0, 0, 0, 0, 0, 0, 0, 0, 0, 0, 0, 0, 0, 0, 0, 0, 0, 0, 0, 0, 0, 0, 0, 0, 0, 0, 0, 0, 0, 0, 0, 0, 0]","[0, 0, 0, 0, 0, 0, 0, 0, 0, 0, 0, 0, 0, 0, 0, 0, 0, 0, 0, 0, 0, 0, 0, 0, 0, 0, 0, 0, 0, 0, 0, 0, 0, 0, 0, 0, 0, 0, 0, 0, 0, 0, 0, 0, 0, 0, 0, 0, 0, 0, 0, 0, 0, 0, 0, 0, 0, 0, 0, 0, 0, 0, 0, 0, 0, 0, 0, 0, 0, 0, 0, 0, 0, 0, 0, 0, 0, 0, 0, 0, 0, 0, 0, 0, 0, 0, 0, 0, 0, 0, 0, 0, 0, 0, 0, 0, 0, 0, 0, 0, 0, 0, 0, 0, 0, 0, 0, 0, 0, 0]","[8.800000068731606e-05, 0.03176529999473132, 0.057404199993470684, 0.07552039998699911, 0.0923653999925591, 0.10885199999029282, 0.1252457999944454, 0.141671999997925, 0.15810380000039004, 0.17518510000081733, 0.19204689998878166, 0.20853649999480695, 0.22527889999037143, 0.24187269998947158, 0.2571732999931555, 0.27404289999685716, 0.2916236999881221, 0.30721539999649394, 0.3240036999923177, 0.34069639998779166, 0.3573543999955291, 0.3738580999925034, 0.39054829999804497, 0.40803299999970477, 0.4244534999888856, 0.4415393999952357, 0.4606560999964131, 0.4745402999978978, 0.49100899999029934, 0.5081356999871787, 0.5244576999975834, 0.5416945999895688, 0.5583016999880783, 0.574835899999016, 0.5913806999888038, 0.608562699999311, 0.624459399987245, 0.6417791999992914, 0.6594990999874426, 0.6743175000010524, 0.6911038999969605, 0.7079658000002382, 0.7244312999973772, 0.7416786999965552, 0.7580358999985037, 0.774406500000623, 0.7916219999897294, 0.8082853999949293, 0.824760299990885, 0.8414654999942286, 0.8605316999892239, 0.8749354999890784, 0.8912551999965217, 0.9081013999966672, 0.9244036999880336, 0.9413457999908132, 0.9580634000012651, 0.9750825999944936, 0.9913545999879716, 1.0079295999894384, 1.0245595999876969, 1.041245100001106, 1.0579987999954028, 1.0745141999941552, 1.091372599999886, 1.1083318999881158, 1.1246925999876112, 1.1414007999992464, 1.158714199991664, 1.1744955999893136, 1.1913033999881009, 1.2079991999926278, 1.2245524999889312, 1.2412999999942258, 1.2578661000006832, 1.2744459999958053, 1.2945598999940557, 1.309953799995128, 1.326844399998663, 1.3447077999881003, 1.3597000000008848, 1.3768488999921829, 1.3931466999929398, 1.4149410999962129, 1.4254082999977982, 1.444620499998564, 1.46117989999766, 1.4807629999995697, 1.4937174999940908, 1.5097459999960847, 1.526328599997214, 1.5429913999978453, 1.560222199987038, 1.576197799993679, 1.5949678999895696, 1.6098503999965033, 1.6263170999882277, 1.643181999999797, 1.6625842999928864, 1.6748175999964587, 1.6913524999981746, 1.7094066999998176, 1.7243248999875505, 1.7411599999904865, 1.7579756999912206, 1.7744193999969866, 1.7912671999947634, 1.8080698999983724, 1.8248833999969065, 1.8470214999979362]",['blue'],0.00901482001063414,None,14.428463100004592,None,14.428463100004592,None,14.428463100004592,None,14.428463100004592,None,14.428463100004592,None,1.0103221699973801,None,17.358108400003402,None,17.358108400003402,None,16.373386700011906,None,16.373386700011906,None,16.373386700011906,None,16.373386700011906,None,16.373386700011906,None,16.373386700011906,None,16.373386700011906,None,16.373386700011906,None,21.29937440001231,None,,,,,2021_Mar_19_1334,rl,2020.2.10,59.89487252111673,
cued.csv,43,57,left,-0.4,0.4,images/green_box.png,43,Reward3.png,Reward3.png,Reward3.png,0.05,0.3,0.3,auditory_stim/coin3.wav,auditory_stim/coin3.wav,auditory_stim/coin3.wav,813,0.8,0,0,0,0,0,1,1,1,,,,,,,,,,,,,,,,,,,,,,,,22.34216670000751,None,22.34216670000751,None,22.34216670000751,None,"[0.3055555555555556, 0.3055555555555556, 0.3055555555555556, 0.3055555555555556, 0.3055555555555556, 0.3055555555555556, 0.3055555555555556, 0.3055555555555556, 0.3055555555555556, 0.3055555555555556, 0.3055555555555556, 0.3055555555555556, 0.3055555555555556, 0.3055555555555556, 0.3055555555555556, 0.3055555555555556, 0.3055555555555556, 0.3055555555555556, 0.3055555555555556, 0.3055555555555556, 0.3055555555555556, 0.3055555555555556, 0.30833333333333335, 0.3125, 0.31666666666666665, 0.32222222222222224, 0.3263888888888889, 0.33055555555555555, 0.33194444444444443, 0.33194444444444443, 0.33194444444444443, 0.33194444444444443, 0.33194444444444443, 0.33194444444444443]","[-0.09166666666666666, -0.09166666666666666, -0.09166666666666666, -0.09166666666666666, -0.09166666666666666, -0.09166666666666666, -0.09166666666666666, -0.09166666666666666, -0.09166666666666666, -0.09166666666666666, -0.09166666666666666, -0.09166666666666666, -0.09166666666666666, -0.09166666666666666, -0.09166666666666666, -0.09166666666666666, -0.09166666666666666, -0.09166666666666666, -0.09166666666666666, -0.09166666666666666, -0.09166666666666666, -0.09166666666666666, -0.0875, -0.08194444444444444, -0.0763888888888889, -0.07083333333333333, -0.06805555555555555, -0.06527777777777778, -0.06388888888888888, -0.06388888888888888, -0.06388888888888888, -0.06388888888888888, -0.06388888888888888, -0.06388888888888888]","[0, 0, 0, 0, 0, 0, 0, 0, 0, 0, 0, 0, 0, 0, 0, 0, 0, 0, 0, 0, 0, 0, 0, 0, 0, 0, 0, 0, 0, 0, 0, 0, 0, 1]","[0, 0, 0, 0, 0, 0, 0, 0, 0, 0, 0, 0, 0, 0, 0, 0, 0, 0, 0, 0, 0, 0, 0, 0, 0, 0, 0, 0, 0, 0, 0, 0, 0, 0]","[0, 0, 0, 0, 0, 0, 0, 0, 0, 0, 0, 0, 0, 0, 0, 0, 0, 0, 0, 0, 0, 0, 0, 0, 0, 0, 0, 0, 0, 0, 0, 0, 0, 0]","[0.0002817999920807779, 0.014506499996059574, 0.028038599994033575, 0.045422399998642504, 0.06170350000320468, 0.078419199999189, 0.09490149999328423, 0.11155869999493007, 0.12823419999040198, 0.14493640000000596, 0.16163639999285806, 0.1782113999943249, 0.1949051999981748, 0.2116358999919612, 0.22903770000266377, 0.24506929999915883, 0.2614634999918053, 0.2781508999905782, 0.29487469999003224, 0.31145949999336153, 0.3281235000031302, 0.34469259998877533, 0.3642173999978695, 0.37972279998939484, 0.3962118999916129, 0.41321669999160804, 0.42978049999510404, 0.4461198999924818, 0.462882299994817, 0.4779445000021951, 0.4943314999982249, 0.5116466999897966, 0.5284072999929776, 0.5515748999896459]",['blue'],0.0113432299986016,None,22.34216670000751,None,22.34216670000751,None,22.34216670000751,None,22.34216670000751,None,22.34216670000751,None,1.0053719500137959,None,23.939619299999322,None,23.939619299999322,None,22.953652399999555,None,22.953652399999555,None,22.953652399999555,None,22.953652399999555,None,22.953652399999555,None,22.953652399999555,None,22.953652399999555,None,22.953652399999555,None,27.922347600004287,None,,,,,2021_Mar_19_1334,rl,2020.2.10,59.89487252111673,
cued.csv,99,1,left,-0.4,0.4,images/blue_box.png,1,Reward5.png,Reward1.png,Reward1.png,0.04,0.1,0.1,auditory_stim/coin5.wav,auditory_stim/coin1.wav,auditory_stim/coin1.wav,1202,1.2,0,0,0,0,0,2,2,2,,,,,,,,,,,,,,,,,,,,,,,0,28.754990300003556,None,28.754990300003556,None,28.754990300003556,None,"[-0.14027777777777778, -0.15555555555555556, -0.1638888888888889, -0.16527777777777777, -0.16527777777777777, -0.16527777777777777, -0.16527777777777777, -0.16527777777777777, -0.16527777777777777, -0.16527777777777777, -0.16527777777777777, -0.16527777777777777, -0.16527777777777777, -0.16527777777777777, -0.16527777777777777, -0.16527777777777777, -0.16527777777777777, -0.16527777777777777, -0.16527777777777777, -0.16527777777777777, -0.16527777777777777, -0.16527777777777777, -0.16527777777777777, -0.16527777777777777, -0.16527777777777777, -0.16527777777777777, -0.16944444444444445, -0.18194444444444444, -0.20277777777777778, -0.23472222222222222, -0.27361111111111114, -0.3125, -0.3458333333333333, -0.38333333333333336, -0.39444444444444443, -0.3972222222222222, -0.3972222222222222, -0.3972222222222222, -0.3972222222222222, -0.3972222222222222, -0.3972222222222222, -0.3972222222222222, -0.3972222222222222, -0.3972222222222222, -0.3972222222222222, -0.3972222222222222]","[-0.10555555555555556, -0.10555555555555556, -0.10555555555555556, -0.10555555555555556, -0.10555555555555556, -0.10555555555555556, -0.10555555555555556, -0.10555555555555556, -0.10555555555555556, -0.10555555555555556, -0.10555555555555556, -0.10555555555555556, -0.10555555555555556, -0.10555555555555556, -0.10555555555555556, -0.10555555555555556, -0.10555555555555556, -0.10555555555555556, -0.10555555555555556, -0.10555555555555556, -0.10555555555555556, -0.10555555555555556, -0.10555555555555556, -0.10555555555555556, -0.10555555555555556, -0.10555555555555556, -0.10555555555555556, -0.10277777777777777, -0.09861111111111111, -0.09444444444444444, -0.09027777777777778, -0.0875, -0.0875, -0.08611111111111111, -0.08472222222222223, -0.08333333333333333, -0.08333333333333333, -0.08333333333333333, -0.08333333333333333, -0.08333333333333333, -0.08333333333333333, -0.08333333333333333, -0.08333333333333333, -0.08333333333333333, -0.08333333333333333, -0.08333333333333333]","[0, 0, 0, 0, 0, 0, 0, 0, 0, 0, 0, 0, 0, 0, 0, 0, 0, 0, 0, 0, 0, 0, 0, 0, 0, 0, 0, 0, 0, 0, 0, 0, 0, 0, 0, 0, 0, 0, 0, 0, 0, 0, 0, 0, 0, 1]","[0, 0, 0, 0, 0, 0, 0, 0, 0, 0, 0, 0, 0, 0, 0, 0, 0, 0, 0, 0, 0, 0, 0, 0, 0, 0, 0, 0, 0, 0, 0, 0, 0, 0, 0, 0, 0, 0, 0, 0, 0, 0, 0, 0, 0, 0]","[0, 0, 0, 0, 0, 0, 0, 0, 0, 0, 0, 0, 0, 0, 0, 0, 0, 0, 0, 0, 0, 0, 0, 0, 0, 0, 0, 0, 0, 0, 0, 0, 0, 0, 0, 0, 0, 0, 0, 0, 0, 0, 0, 0, 0, 0]","[0.00033429999893996865, 0.017441000003600493, 0.03470299999753479, 0.04989989999739919, 0.06651030000648461, 0.08315970000694506, 0.0998187999939546, 0.11635159999423195, 0.1331653999950504, 0.1501057999994373, 0.16684320000058506, 0.1817972999997437, 0.19765020000340883, 0.21443880000151694, 0.23096000000077765, 0.24787550000473857, 0.26432560000102967, 0.2812244999950053, 0.29807079999591224, 0.3143244999955641, 0.33178659999975935, 0.3482382999936817, 0.3655587999965064, 0.3817337999935262, 0.398462400000426, 0.4153216999984579, 0.43316620000405237, 0.45020360000489745, 0.4665032000048086, 0.48304750000534113, 0.5007328000065172, 0.5167216999980155, 0.5344372999970801, 0.5509214000048814, 0.5712261000007857, 0.5819405999936862, 0.5985366999957478, 0.6150745000049938, 0.6318503999937093, 0.6486652000021422, 0.6667483000055654, 0.6832866000040667, 0.6999647000047844, 0.7164549000008265, 0.7332961999927647, 0.7515583000058541]",['green'],0.0014333199942484498,None,28.754990300003556,None,28.754990300003556,None,28.754990300003556,None,28.754990300003556,None,28.754990300003556,None,1.0018467400223017,None,30.555968800006667,None,30.555968800006667,None,29.56351920000452,None,29.56351920000452,None,29.56351920000452,None,29.56351920000452,None,29.56351920000452,None,29.56351920000452,None,29.56351920000452,None,29.56351920000452,None,34.522619499999564,None,,,,,2021_Mar_19_1334,rl,2020.2.10,59.89487252111673,
cued.csv,24,76,left,-0.4,0.4,images/blue_box.png,76,Reward2.png,Reward4.png,Reward4.png,0.1,0.4,0.4,auditory_stim/coin2.wav,auditory_stim/coin4.wav,auditory_stim/coin4.wav,1082,1.1,0,0,0,0,0,3,3,3,,,,,,,,,,,,,,,,,,,,,,,1,35.750605200009886,None,35.750605200009886,None,35.750605200009886,None,"[-0.375, -0.37083333333333335, -0.36527777777777776, -0.3611111111111111, -0.35555555555555557, -0.3458333333333333, -0.3375, -0.32083333333333336, -0.3138888888888889, -0.2847222222222222, -0.25833333333333336, -0.23055555555555557, -0.19583333333333333, -0.15694444444444444, -0.10972222222222222, -0.05416666666666667, 0.011111111111111112, 0.08055555555555556, 0.15, 0.2388888888888889, 0.2652777777777778, 0.33194444444444443, 0.36527777777777776, 0.3888888888888889, 0.39861111111111114, 0.4027777777777778, 0.40555555555555556, 0.40555555555555556, 0.40555555555555556, 0.40555555555555556, 0.40555555555555556, 0.4097222222222222, 0.4125, 0.41805555555555557, 0.4222222222222222, 0.42777777777777776, 0.42916666666666664, 0.4305555555555556, 0.4305555555555556, 0.4305555555555556, 0.4305555555555556, 0.4305555555555556]","[-0.0763888888888889, -0.075, -0.07361111111111111, -0.07361111111111111, -0.07222222222222222, -0.07083333333333333, -0.06944444444444445, -0.06805555555555555, -0.06666666666666667, -0.0625, -0.06111111111111111, -0.05694444444444444, -0.05277777777777778, -0.04861111111111111, -0.043055555555555555, -0.03888888888888889, -0.03611111111111111, -0.03333333333333333, -0.03333333333333333, -0.029166666666666667, -0.029166666666666667, -0.029166666666666667, -0.029166666666666667, -0.029166666666666667, -0.029166666666666667, -0.029166666666666667, -0.029166666666666667, -0.029166666666666667, -0.029166666666666667, -0.029166666666666667, -0.029166666666666667, -0.027777777777777776, -0.027777777777777776, -0.02638888888888889, -0.02638888888888889, -0.025, -0.025, -0.025, -0.025, -0.025, -0.025, -0.025]","[0, 0, 0, 0, 0, 0, 0, 0, 0, 0, 0, 0, 0, 0, 0, 0, 0, 0, 0, 0, 0, 0, 0, 0, 0, 0, 0, 0, 0, 0, 0, 0, 0, 0, 0, 0, 0, 0, 0, 0, 0, 1]","[0, 0, 0, 0, 0, 0, 0, 0, 0, 0, 0, 0, 0, 0, 0, 0, 0, 0, 0, 0, 0, 0, 0, 0, 0, 0, 0, 0, 0, 0, 0, 0, 0, 0, 0, 0, 0, 0, 0, 0, 0, 0]","[0, 0, 0, 0, 0, 0, 0, 0, 0, 0, 0, 0, 0, 0, 0, 0, 0, 0, 0, 0, 0, 0, 0, 0, 0, 0, 0, 0, 0, 0, 0, 0, 0, 0, 0, 0, 0, 0, 0, 0, 0, 0]","[0.00031740000122226775, 0.01725119999900926, 0.03992840000137221, 0.057272999998531304, 0.07410859999072272, 0.0903931999928318, 0.10561820000293665, 0.1254354999982752, 0.13878120000299532, 0.157839999999851, 0.174173499995959, 0.19064760000037495, 0.20840160000079777, 0.22395420000248123, 0.24093109999375883, 0.25866979999409523, 0.27394459999050014, 0.29058810000424273, 0.3072156999987783, 0.32823040000221226, 0.34116050000011455, 0.3587861999985762, 0.37375539999629837, 0.39096829999471083, 0.40712570000323467, 0.4221881999983452, 0.4387164999934612, 0.45560549999936484, 0.472060899992357, 0.4887340999994194, 0.5063878999935696, 0.5256822999945143, 0.538755499990657, 0.5569953999947757, 0.5738605999940773, 0.5899638999981107, 0.6072618000034709, 0.6234800999955041, 0.6387651999975787, 0.6554293999943184, 0.6724133999960031, 0.6908481999998912]",['blue'],0.007191720011178404,None,35.750605200009886,None,35.750605200009886,None,35.750605200009886,None,35.750605200009886,None,35.750605200009886,None,1.0017925400024978,None,37.47223270000541,None,37.47223270000541,None,36.486699800007045,None,36.486699800007045,None,36.486699800007045,None,36.486699800007045,None,36.486699800007045,None,36.486699800007045,None,36.486699800007045,None,36.486699800007045,None,41.45580090000294,None,,,,,2021_Mar_19_1334,rl,2020.2.10,59.89487252111673,
cued.csv,86,14,left,-0.4,0.4,images/green_box.png,86,Reward5.png,Reward1.png,Reward5.png,0.06,0.5,0.5,auditory_stim/coin5.wav,auditory_stim/coin1.wav,auditory_stim/coin5.wav,1006,1.0,0,0,0,0,0,4,4,4,,,,,,,,,,,,,,,,,,,,,,,1,42.57566630000656,None,42.57566630000656,None,42.57566630000656,None,"[-0.3416666666666667, -0.3416666666666667, -0.3416666666666667, -0.3416666666666667, -0.3416666666666667, -0.3416666666666667, -0.3416666666666667, -0.3416666666666667, -0.3402777777777778, -0.3388888888888889, -0.3375, -0.3375, -0.33611111111111114, -0.33611111111111114, -0.3347222222222222, -0.3333333333333333, -0.33194444444444443, -0.33194444444444443, -0.33194444444444443, -0.33194444444444443, -0.33194444444444443, -0.33194444444444443, -0.33194444444444443, -0.33194444444444443, -0.33194444444444443, -0.33194444444444443]","[-0.12916666666666668, -0.12916666666666668, -0.12916666666666668, -0.12916666666666668, -0.12916666666666668, -0.12638888888888888, -0.12361111111111112, -0.12361111111111112, -0.12083333333333333, -0.11805555555555555, -0.11527777777777778, -0.1125, -0.10972222222222222, -0.10555555555555556, -0.10138888888888889, -0.09583333333333334, -0.09027777777777778, -0.0875, -0.08194444444444444, -0.07916666666666666, -0.0763888888888889, -0.0763888888888889, -0.0763888888888889, -0.0763888888888889, -0.0763888888888889, -0.0763888888888889]","[0, 0, 0, 0, 0, 0, 0, 0, 0, 0, 0, 0, 0, 0, 0, 0, 0, 0, 0, 0, 0, 0, 0, 0, 0, 1]","[0, 0, 0, 0, 0, 0, 0, 0, 0, 0, 0, 0, 0, 0, 0, 0, 0, 0, 0, 0, 0, 0, 0, 0, 0, 0]","[0, 0, 0, 0, 0, 0, 0, 0, 0, 0, 0, 0, 0, 0, 0, 0, 0, 0, 0, 0, 0, 0, 0, 0, 0, 0]","[0.0002992000081576407, 0.015160300012212247, 0.02861059999850113, 0.045537700003478676, 0.06187820000923239, 0.07895100000314415, 0.09683210001094267, 0.11191230000986252, 0.13147410000965465, 0.14566950000880752, 0.1639356000086991, 0.18217569999978878, 0.19789850000233855, 0.21340540000528563, 0.23104030000104103, 0.25244100000418257, 0.26641250000102445, 0.2800347000011243, 0.29682460000913125, 0.31405980000272393, 0.3304264000034891, 0.3447692000045208, 0.3614972000068519, 0.3795684000069741, 0.3955322000110755, 0.4120159000012791]",['green'],0.01226001999748405,None,42.57566630000656,None,42.57566630000656,None,42.57566630000656,None,42.57566630000656,None,42.57566630000656,None,1.0113106499920832,None,44.037726300011855,None,44.037726300011855,None,43.04830190000939,None,43.04830190000939,None,43.04830190000939,None,43.04830190000939,None,43.04830190000939,None,43.04830190000939,None,43.04830190000939,None,43.04830190000939,None,48.00586910000129,None,,,,,2021_Mar_19_1334,rl,2020.2.10,59.89487252111673,
cued.csv,75,25,right,0.4,-0.4,images/blue_box.png,25,Reward4.png,Reward2.png,Reward2.png,0.045,0.2,0.2,auditory_stim/coin4.wav,auditory_stim/coin2.wav,auditory_stim/coin2.wav,830,0.8,0,0,0,0,0,5,5,5,,,,,,,,,,,,,,,,,,,,,,,0,49.02317210000183,None,49.02317210000183,None,49.02317210000183,None,"[-0.33194444444444443, -0.33194444444444443, -0.33194444444444443, -0.33055555555555555, -0.31666666666666665, -0.30416666666666664, -0.2847222222222222, -0.2652777777777778, -0.24166666666666667, -0.2111111111111111, -0.175, -0.13194444444444445, -0.0875, -0.041666666666666664, 0.011111111111111112, 0.06666666666666667, 0.14722222222222223, 0.2, 0.24722222222222223, 0.2916666666666667, 0.32916666666666666, 0.3597222222222222, 0.3861111111111111, 0.4083333333333333, 0.4236111111111111, 0.4361111111111111, 0.44583333333333336, 0.4513888888888889, 0.4513888888888889, 0.4527777777777778, 0.4527777777777778, 0.4527777777777778, 0.4527777777777778, 0.4527777777777778, 0.4527777777777778, 0.4527777777777778, 0.4527777777777778, 0.4527777777777778]","[-0.0763888888888889, -0.0763888888888889, -0.0763888888888889, -0.0763888888888889, -0.07361111111111111, -0.07361111111111111, -0.07361111111111111, -0.075, -0.075, -0.07916666666666666, -0.08055555555555556, -0.08333333333333333, -0.08611111111111111, -0.08611111111111111, -0.08194444444444444, -0.08055555555555556, -0.075, -0.07083333333333333, -0.06666666666666667, -0.06111111111111111, -0.059722222222222225, -0.05555555555555555, -0.05416666666666667, -0.05138888888888889, -0.05, -0.04861111111111111, -0.04722222222222222, -0.044444444444444446, -0.044444444444444446, -0.043055555555555555, -0.043055555555555555, -0.043055555555555555, -0.043055555555555555, -0.043055555555555555, -0.043055555555555555, -0.043055555555555555, -0.043055555555555555, -0.043055555555555555]","[0, 0, 0, 0, 0, 0, 0, 0, 0, 0, 0, 0, 0, 0, 0, 0, 0, 0, 0, 0, 0, 0, 0, 0, 0, 0, 0, 0, 0, 0, 0, 0, 0, 0, 0, 0, 0, 1]","[0, 0, 0, 0, 0, 0, 0, 0, 0, 0, 0, 0, 0, 0, 0, 0, 0, 0, 0, 0, 0, 0, 0, 0, 0, 0, 0, 0, 0, 0, 0, 0, 0, 0, 0, 0, 0, 0]","[0, 0, 0, 0, 0, 0, 0, 0, 0, 0, 0, 0, 0, 0, 0, 0, 0, 0, 0, 0, 0, 0, 0, 0, 0, 0, 0, 0, 0, 0, 0, 0, 0, 0, 0, 0, 0, 0]","[0.00028369999199640006, 0.014346299998578615, 0.03017589999944903, 0.0475529999966966, 0.06635389999428298, 0.08144110000284854, 0.09857449999253731, 0.11538380000274628, 0.13181009999243543, 0.1482067999895662, 0.1650660000013886, 0.18276650000188965, 0.1994523999892408, 0.21465349999198224, 0.23116830000071786, 0.2474573999934364, 0.2663341000006767, 0.28207169999950565, 0.29957350000040606, 0.31487729999935254, 0.33234120000270195, 0.3483341999963159, 0.36489379999693483, 0.3817196000018157, 0.39846089998900425, 0.41489349999756087, 0.4331106999889016, 0.45004869998956565, 0.46364200000243727, 0.4818029000016395, 0.4969317999930354, 0.5136042999947676, 0.5301754999964032, 0.5468980000005104, 0.5639064999995753, 0.5805420999968192, 0.597143099992536, 0.615529399990919]",['green'],0.013264120003441349,None,49.02317210000183,None,49.02317210000183,None,49.02317210000183,None,49.02317210000183,None,49.02317210000183,None,1.0154111400188413,None,50.68926340001053,None,50.68926340001053,None,49.689603200007696,None,49.689603200007696,None,49.689603200007696,None,49.689603200007696,None,49.689603200007696,None,49.689603200007696,None,49.689603200007696,None,49.689603200007696,None,54.655686900005094,None,,,,,2021_Mar_19_1334,rl,2020.2.10,59.89487252111673,
cued.csv,91,9,left,-0.4,0.4,images/green_box.png,91,Reward5.png,Reward1.png,Reward5.png,0.06,0.5,0.5,auditory_stim/coin5.wav,auditory_stim/coin1.wav,auditory_stim/coin5.wav,1228,1.2,0,0,0,0,0,6,6,6,,,,,,,,,,,,,,,,,,,,,,,1,55.47267129999818,None,55.47267129999818,None,55.47267129999818,None,"[-0.2833333333333333, -0.2833333333333333, -0.2833333333333333, -0.2833333333333333, -0.2833333333333333, -0.2833333333333333, -0.2833333333333333, -0.2833333333333333, -0.2833333333333333, -0.2833333333333333, -0.2833333333333333, -0.2833333333333333, -0.2833333333333333, -0.2833333333333333, -0.2833333333333333, -0.2833333333333333, -0.2833333333333333, -0.2833333333333333, -0.2833333333333333, -0.2833333333333333, -0.2833333333333333, -0.2847222222222222, -0.2847222222222222, -0.2847222222222222, -0.28194444444444444, -0.28194444444444444, -0.28194444444444444, -0.28055555555555556, -0.28055555555555556, -0.28055555555555556, -0.28055555555555556, -0.28055555555555556, -0.28055555555555556, -0.28055555555555556]","[-0.07361111111111111, -0.07361111111111111, -0.07361111111111111, -0.07361111111111111, -0.07361111111111111, -0.07361111111111111, -0.07361111111111111, -0.07361111111111111, -0.07361111111111111, -0.07361111111111111, -0.07361111111111111, -0.07361111111111111, -0.07361111111111111, -0.07361111111111111, -0.07361111111111111, -0.07361111111111111, -0.07361111111111111, -0.07361111111111111, -0.07361111111111111, -0.07361111111111111, -0.07361111111111111, -0.06944444444444445, -0.06805555555555555, -0.06666666666666667, -0.0625, -0.0625, -0.059722222222222225, -0.058333333333333334, -0.058333333333333334, -0.05694444444444444, -0.05694444444444444, -0.05694444444444444, -0.05694444444444444, -0.05694444444444444]","[0, 0, 0, 0, 0, 0, 0, 0, 0, 0, 0, 0, 0, 0, 0, 0, 0, 0, 0, 0, 0, 0, 0, 0, 0, 0, 0, 0, 0, 0, 0, 0, 0, 1]","[0, 0, 0, 0, 0, 0, 0, 0, 0, 0, 0, 0, 0, 0, 0, 0, 0, 0, 0, 0, 0, 0, 0, 0, 0, 0, 0, 0, 0, 0, 0, 0, 0, 0]","[0, 0, 0, 0, 0, 0, 0, 0, 0, 0, 0, 0, 0, 0, 0, 0, 0, 0, 0, 0, 0, 0, 0, 0, 0, 0, 0, 0, 0, 0, 0, 0, 0, 0]","[0.0002775000029942021, 0.014814900001510978, 0.03127739999035839, 0.04789239999081474, 0.06485349999275059, 0.08138550000148825, 0.09894729999359697, 0.11485939999693073, 0.1312502999935532, 0.14751219999743626, 0.16459230000327807, 0.1814849999936996, 0.19786780000140425, 0.21446439999272116, 0.23172889999113977, 0.24796549999155104, 0.26367539999773726, 0.280556700003217, 0.2965302999946289, 0.3130759999912698, 0.3307559999957448, 0.3560123999923235, 0.368357700004708, 0.38108189999184106, 0.4015328999958001, 0.4150284999923315, 0.4313484000012977, 0.4493388999981107, 0.4645559999917168, 0.48202199999650475, 0.4983358000026783, 0.5144785000011325, 0.5315876999957254, 0.5537016000016592]",['green'],0.014028019999386743,None,55.47267129999818,None,55.47267129999818,None,55.47267129999818,None,55.47267129999818,None,55.47267129999818,None,1.0088762500090525,None,57.0722364000103,None,57.0722364000103,None,56.08473960000265,None,56.08473960000265,None,56.08473960000265,None,56.08473960000265,None,56.08473960000265,None,56.08473960000265,None,56.08473960000265,None,56.08473960000265,None,61.057994400005555,None,,,,,2021_Mar_19_1334,rl,2020.2.10,59.89487252111673,
cued.csv,96,4,left,-0.4,0.4,images/blue_box.png,4,Reward5.png,Reward1.png,Reward1.png,0.04,0.1,0.1,auditory_stim/coin5.wav,auditory_stim/coin1.wav,auditory_stim/coin1.wav,834,0.8,0,0,0,0,0,7,7,7,,,,,,,,,,,,,,,,,,,,,,,0,62.289955200001714,None,62.289955200001714,None,62.289955200001714,None,"[-0.4111111111111111, -0.4111111111111111, -0.4111111111111111, -0.4111111111111111, -0.4111111111111111, -0.4111111111111111, -0.4111111111111111, -0.4111111111111111, -0.4111111111111111, -0.4111111111111111, -0.4111111111111111, -0.4111111111111111, -0.4111111111111111, -0.4111111111111111, -0.4111111111111111, -0.4111111111111111, -0.4111111111111111, -0.4111111111111111, -0.4111111111111111, -0.4111111111111111, -0.4111111111111111, -0.4111111111111111]","[-0.058333333333333334, -0.058333333333333334, -0.058333333333333334, -0.058333333333333334, -0.058333333333333334, -0.058333333333333334, -0.058333333333333334, -0.058333333333333334, -0.058333333333333334, -0.058333333333333334, -0.058333333333333334, -0.058333333333333334, -0.058333333333333334, -0.058333333333333334, -0.058333333333333334, -0.058333333333333334, -0.058333333333333334, -0.058333333333333334, -0.058333333333333334, -0.058333333333333334, -0.058333333333333334, -0.058333333333333334]","[0, 0, 0, 0, 0, 0, 0, 0, 0, 0, 0, 0, 0, 0, 0, 0, 0, 0, 0, 0, 0, 1]","[0, 0, 0, 0, 0, 0, 0, 0, 0, 0, 0, 0, 0, 0, 0, 0, 0, 0, 0, 0, 0, 0]","[0, 0, 0, 0, 0, 0, 0, 0, 0, 0, 0, 0, 0, 0, 0, 0, 0, 0, 0, 0, 0, 0]","[0.0002888000017264858, 0.01475820000632666, 0.032049200002802536, 0.047021699996548705, 0.06331040000077337, 0.08111729999654926, 0.09530800000356976, 0.11193590000038967, 0.12822959999903105, 0.14519490000384394, 0.1619191000063438, 0.17855409999901894, 0.19519759999820963, 0.21187579999968875, 0.22838000000047032, 0.24497369999880902, 0.26218010000593495, 0.27901610000117216, 0.29519879999861587, 0.31190309999510646, 0.32848769999691285, 0.34699590000673197]",['green'],0.013229620017227717,None,62.289955200001714,None,62.289955200001714,None,62.289955200001714,None,62.289955200001714,None,62.289955200001714,None,0.9992487299896311,None,63.65592230000766,None,63.65592230000766,None,62.67221140000038,None,62.67221140000038,None,62.67221140000038,None,62.67221140000038,None,62.67221140000038,None,62.67221140000038,None,62.67221140000038,None,62.67221140000038,None,67.65582330001052,None,,,,,2021_Mar_19_1334,rl,2020.2.10,59.89487252111673,
cued.csv,36,64,right,0.4,-0.4,images/blue_box.png,64,Reward2.png,Reward4.png,Reward4.png,0.1,0.4,0.4,auditory_stim/coin2.wav,auditory_stim/coin4.wav,auditory_stim/coin4.wav,1134,1.1,0,0,0,0,0,8,8,8,,,,,,,,,,,,,,,,,,,,,,,1,68.47057990000758,None,68.47057990000758,None,68.47057990000758,None,"[-0.4111111111111111, -0.4111111111111111, -0.4111111111111111, -0.4111111111111111, -0.4111111111111111, -0.4111111111111111, -0.4111111111111111, -0.4111111111111111, -0.4111111111111111, -0.4111111111111111, -0.4111111111111111, -0.4111111111111111, -0.4111111111111111, -0.4111111111111111, -0.4111111111111111, -0.4111111111111111, -0.4111111111111111, -0.4111111111111111, -0.4111111111111111, -0.4111111111111111, -0.4111111111111111, -0.4111111111111111, -0.4111111111111111, -0.4111111111111111, -0.4111111111111111]","[-0.058333333333333334, -0.058333333333333334, -0.058333333333333334, -0.058333333333333334, -0.058333333333333334, -0.058333333333333334, -0.058333333333333334, -0.058333333333333334, -0.058333333333333334, -0.058333333333333334, -0.058333333333333334, -0.058333333333333334, -0.058333333333333334, -0.058333333333333334, -0.058333333333333334, -0.058333333333333334, -0.058333333333333334, -0.058333333333333334, -0.058333333333333334, -0.058333333333333334, -0.058333333333333334, -0.058333333333333334, -0.058333333333333334, -0.058333333333333334, -0.058333333333333334]","[0, 0, 0, 0, 0, 0, 0, 0, 0, 0, 0, 0, 0, 0, 0, 0, 0, 0, 0, 0, 0, 0, 0, 0, 1]","[0, 0, 0, 0, 0, 0, 0, 0, 0, 0, 0, 0, 0, 0, 0, 0, 0, 0, 0, 0, 0, 0, 0, 0, 0]","[0, 0, 0, 0, 0, 0, 0, 0, 0, 0, 0, 0, 0, 0, 0, 0, 0, 0, 0, 0, 0, 0, 0, 0, 0]","[8.89999937498942e-05, 0.009379900002386421, 0.026247999994666316, 0.04483769999933429, 0.059689999994589016, 0.07631150000088383, 0.09291510000184644, 0.11159179999958724, 0.12871520000044256, 0.14521430000604596, 0.1618021000031149, 0.17874689999734983, 0.195205399999395, 0.21182280000357423, 0.22861000000557397, 0.24573910000617616, 0.2618771999987075, 0.27905599999940023, 0.2956280000071274, 0.3124018999951659, 0.32873429999744985, 0.3451156999944942, 0.36141690000658855, 0.3786943000013707, 0.39686799999617506]",['blue'],0.009305810002842918,None,68.47057990000758,None,68.47057990000758,None,68.47057990000758,None,68.47057990000758,None,68.47057990000758,None,0.9997954400023445,None,69.90583640000841,None,69.90583640000841,None,68.92334170000686,None,68.92334170000686,None,68.92334170000686,None,68.92334170000686,None,68.92334170000686,None,68.92334170000686,None,68.92334170000686,None,68.92334170000686,None,73.8889377000014,None,,,,,2021_Mar_19_1334,rl,2020.2.10,59.89487252111673,
cued.csv,11,89,left,-0.4,0.4,images/blue_box.png,89,Reward1.png,Reward5.png,Reward5.png,0.06,0.5,0.5,auditory_stim/coin1.wav,auditory_stim/coin5.wav,auditory_stim/coin5.wav,795,0.8,0,0,0,0,0,9,9,9,,,,,,,,,,,,,,,,,,,,,,,0,75.00594719999935,None,75.00594719999935,None,75.00594719999935,None,"[-0.4111111111111111, -0.4111111111111111, -0.4111111111111111, -0.4111111111111111, -0.4111111111111111, -0.4111111111111111, -0.4111111111111111, -0.4111111111111111, -0.4111111111111111, -0.4111111111111111, -0.4111111111111111, -0.4111111111111111, -0.4111111111111111, -0.4111111111111111, -0.4111111111111111, -0.4111111111111111, -0.4111111111111111, -0.4111111111111111, -0.4111111111111111, -0.4111111111111111, -0.4111111111111111, -0.4111111111111111, -0.4111111111111111, -0.4111111111111111, -0.4111111111111111]","[-0.058333333333333334, -0.058333333333333334, -0.058333333333333334, -0.058333333333333334, -0.058333333333333334, -0.058333333333333334, -0.058333333333333334, -0.058333333333333334, -0.058333333333333334, -0.058333333333333334, -0.058333333333333334, -0.058333333333333334, -0.058333333333333334, -0.058333333333333334, -0.058333333333333334, -0.058333333333333334, -0.058333333333333334, -0.058333333333333334, -0.058333333333333334, -0.058333333333333334, -0.058333333333333334, -0.058333333333333334, -0.058333333333333334, -0.058333333333333334, -0.058333333333333334]","[0, 0, 0, 0, 0, 0, 0, 0, 0, 0, 0, 0, 0, 0, 0, 0, 0, 0, 0, 0, 0, 0, 0, 0, 1]","[0, 0, 0, 0, 0, 0, 0, 0, 0, 0, 0, 0, 0, 0, 0, 0, 0, 0, 0, 0, 0, 0, 0, 0, 0]","[0, 0, 0, 0, 0, 0, 0, 0, 0, 0, 0, 0, 0, 0, 0, 0, 0, 0, 0, 0, 0, 0, 0, 0, 0]","[0.0002823999966494739, 0.013760700006969273, 0.03011490000062622, 0.04726279999886174, 0.06403019999561366, 0.08012440000311472, 0.09678180000628345, 0.11347979999845847, 0.13006539999332745, 0.14697970000270288, 0.16351519999443553, 0.1805541999929119, 0.19708309999259654, 0.21357370000623632, 0.23047439999936614, 0.2489017000043532, 0.2637789000000339, 0.27961559999675956, 0.2970509000006132, 0.31361569999717176, 0.3301978999952553, 0.3470247999939602, 0.36351749999448657, 0.3807505000004312, 0.4004068000067491]",['green'],0.013178219989640638,None,75.00594719999935,None,75.00594719999935,None,75.00594719999935,None,75.00594719999935,None,75.00594719999935,None,1.0069196400145302,None,76.45595360000152,None,76.45595360000152,None,75.46108990001085,None,75.46108990001085,None,75.46108990001085,None,75.46108990001085,None,75.46108990001085,None,75.46108990001085,None,75.46108990001085,None,75.46108990001085,None,80.42247640001005,None,,,,,2021_Mar_19_1334,rl,2020.2.10,59.89487252111673,
cued.csv,100,0,left,-0.4,0.4,images/blue_box.png,0,Reward5.png,Rewardnull.png,Rewardnull.png,0.04,0.5,0.5,auditory_stim/coin5.wav,auditory_stim/coin1.wav,auditory_stim/coin1.wav,788,0.8,0,0,0,0,0,10,10,10,,,,,,,,,,,,,,,,,,,,,,,0,81.24071070000355,None,81.24071070000355,None,81.24071070000355,None,"[-0.4111111111111111, -0.4111111111111111, -0.4111111111111111, -0.4111111111111111, -0.4111111111111111, -0.4111111111111111, -0.4111111111111111, -0.4111111111111111, -0.4111111111111111, -0.4111111111111111, -0.4111111111111111, -0.4111111111111111, -0.4111111111111111, -0.4111111111111111, -0.4111111111111111, -0.4111111111111111, -0.4111111111111111, -0.4111111111111111, -0.4111111111111111, -0.4111111111111111, -0.4111111111111111, -0.4111111111111111, -0.4111111111111111, -0.4111111111111111, -0.4111111111111111]","[-0.058333333333333334, -0.058333333333333334, -0.058333333333333334, -0.058333333333333334, -0.058333333333333334, -0.058333333333333334, -0.058333333333333334, -0.058333333333333334, -0.058333333333333334, -0.058333333333333334, -0.058333333333333334, -0.058333333333333334, -0.058333333333333334, -0.058333333333333334, -0.058333333333333334, -0.058333333333333334, -0.058333333333333334, -0.058333333333333334, -0.058333333333333334, -0.058333333333333334, -0.058333333333333334, -0.058333333333333334, -0.058333333333333334, -0.058333333333333334, -0.058333333333333334]","[0, 0, 0, 0, 0, 0, 0, 0, 0, 0, 0, 0, 0, 0, 0, 0, 0, 0, 0, 0, 0, 0, 0, 0, 1]","[0, 0, 0, 0, 0, 0, 0, 0, 0, 0, 0, 0, 0, 0, 0, 0, 0, 0, 0, 0, 0, 0, 0, 0, 0]","[0, 0, 0, 0, 0, 0, 0, 0, 0, 0, 0, 0, 0, 0, 0, 0, 0, 0, 0, 0, 0, 0, 0, 0, 0]","[0.00027949998911935836, 0.014497299998765811, 0.030825099995126948, 0.04826440000033472, 0.060883499987539835, 0.0773064999957569, 0.0941132000007201, 0.11102029999892693, 0.12775309999415185, 0.14503279999189544, 0.162836099989363, 0.18005489998904523, 0.1962978999945335, 0.21236079999653157, 0.2291621999902418, 0.2461367999931099, 0.2629964999941876, 0.27959049999481067, 0.2960568999988027, 0.31300589999591466, 0.3300550999992993, 0.34639819999574684, 0.3631056999875, 0.379451999993762, 0.39775799999188166]",['green'],0.013040620004176162,None,81.24071070000355,None,81.24071070000355,None,81.24071070000355,None,81.24071070000355,None,81.24071070000355,None,1.0099714499956463,None,82.70616670000891,None,82.70616670000891,None,81.70934080000734,None,81.70934080000734,None,81.70934080000734,None,81.70934080000734,None,81.70934080000734,None,81.70934080000734,None,81.70934080000734,None,81.70934080000734,None,86.65545770000608,None,,,,,2021_Mar_19_1334,rl,2020.2.10,59.89487252111673,
cued.csv,35,65,right,0.4,-0.4,images/blue_box.png,65,Reward2.png,Reward4.png,Reward4.png,0.1,0.4,0.4,auditory_stim/coin2.wav,auditory_stim/coin4.wav,auditory_stim/coin4.wav,1225,1.2,0,0,0,0,0,11,11,11,,,,,,,,,,,,,,,,,,,,,,,1,87.47413360000064,None,87.47413360000064,None,87.47413360000064,None,"[-0.4111111111111111, -0.4111111111111111, -0.4111111111111111, -0.4111111111111111, -0.4111111111111111, -0.4111111111111111, -0.4111111111111111, -0.4111111111111111, -0.4111111111111111, -0.4111111111111111, -0.4111111111111111, -0.4111111111111111, -0.4111111111111111, -0.4111111111111111, -0.4111111111111111, -0.4111111111111111, -0.4111111111111111, -0.4111111111111111, -0.4111111111111111, -0.4111111111111111, -0.4111111111111111, -0.4111111111111111]","[-0.058333333333333334, -0.058333333333333334, -0.058333333333333334, -0.058333333333333334, -0.058333333333333334, -0.058333333333333334, -0.058333333333333334, -0.058333333333333334, -0.058333333333333334, -0.058333333333333334, -0.058333333333333334, -0.058333333333333334, -0.058333333333333334, -0.058333333333333334, -0.058333333333333334, -0.058333333333333334, -0.058333333333333334, -0.058333333333333334, -0.058333333333333334, -0.058333333333333334, -0.058333333333333334, -0.058333333333333334]","[0, 0, 0, 0, 0, 0, 0, 0, 0, 0, 0, 0, 0, 0, 0, 0, 0, 0, 0, 0, 0, 1]","[0, 0, 0, 0, 0, 0, 0, 0, 0, 0, 0, 0, 0, 0, 0, 0, 0, 0, 0, 0, 0, 0]","[0, 0, 0, 0, 0, 0, 0, 0, 0, 0, 0, 0, 0, 0, 0, 0, 0, 0, 0, 0, 0, 0]","[0.0002860000095097348, 0.015176100001554005, 0.03050940000684932, 0.046636300001409836, 0.0635045000090031, 0.0800644000119064, 0.09676900001068134, 0.11335320000944193, 0.1302624000090873, 0.14687080000294372, 0.16401030000997707, 0.18026790001022164, 0.1968621000123676, 0.2136134000029415, 0.2306768000125885, 0.24667659999977332, 0.2635856000124477, 0.2805883000110043, 0.29674220000742935, 0.3134040000004461, 0.33021080000617076, 0.3532153999985894]",['blue'],0.013238220009952784,None,87.47413360000064,None,87.47413360000064,None,87.47413360000064,None,87.47413360000064,None,87.47413360000064,None,1.0145187599846395,None,88.90598580001097,None,88.90598580001097,None,87.91405360000499,None,87.91405360000499,None,87.91405360000499,None,87.91405360000499,None,87.91405360000499,None,87.91405360000499,None,87.91405360000499,None,87.91405360000499,None,92.85562790000404,None,,,,,2021_Mar_19_1334,rl,2020.2.10,59.89487252111673,
cued.csv,97,3,right,0.4,-0.4,images/blue_box.png,3,Reward5.png,Reward1.png,Reward1.png,0.04,0.1,0.1,auditory_stim/coin5.wav,auditory_stim/coin1.wav,auditory_stim/coin1.wav,1107,1.1,0,0,0,0,0,12,12,12,,,,,,,,,,,,,,,,,,,,,,,1,94.07390740000119,None,94.07390740000119,None,94.07390740000119,None,"[-0.4111111111111111, -0.4111111111111111, -0.4111111111111111, -0.4111111111111111, -0.4111111111111111, -0.4111111111111111, -0.4111111111111111, -0.4111111111111111, -0.4111111111111111, -0.4111111111111111, -0.4111111111111111, -0.4111111111111111, -0.4111111111111111, -0.4111111111111111, -0.4111111111111111, -0.4111111111111111, -0.4111111111111111, -0.4111111111111111, -0.4111111111111111, -0.4111111111111111, -0.4111111111111111, -0.4111111111111111]","[-0.058333333333333334, -0.058333333333333334, -0.058333333333333334, -0.058333333333333334, -0.058333333333333334, -0.058333333333333334, -0.058333333333333334, -0.058333333333333334, -0.058333333333333334, -0.058333333333333334, -0.058333333333333334, -0.058333333333333334, -0.058333333333333334, -0.058333333333333334, -0.058333333333333334, -0.058333333333333334, -0.058333333333333334, -0.058333333333333334, -0.058333333333333334, -0.058333333333333334, -0.058333333333333334, -0.058333333333333334]","[0, 0, 0, 0, 0, 0, 0, 0, 0, 0, 0, 0, 0, 0, 0, 0, 0, 0, 0, 0, 0, 1]","[0, 0, 0, 0, 0, 0, 0, 0, 0, 0, 0, 0, 0, 0, 0, 0, 0, 0, 0, 0, 0, 0]","[0, 0, 0, 0, 0, 0, 0, 0, 0, 0, 0, 0, 0, 0, 0, 0, 0, 0, 0, 0, 0, 0]","[0.00027999999292660505, 0.013711999999941327, 0.028737100001308136, 0.045407600002363324, 0.062072400003671646, 0.07888109999476, 0.09546709999267478, 0.11260419999598525, 0.1290895999991335, 0.14556200000515673, 0.16209169999638107, 0.18000609999580774, 0.19565379999403376, 0.2120909999939613, 0.22844989999430254, 0.24563999999372754, 0.26216050000221003, 0.2787633999978425, 0.2955031000019517, 0.31258709999383427, 0.3290497999987565, 0.34858770000573713]",['blue'],0.012291520019061863,None,94.07390740000119,None,94.07390740000119,None,94.07390740000119,None,94.07390740000119,None,94.07390740000119,None,1.012240540003404,None,95.47258180000063,None,95.47258180000063,None,94.47482880001189,None,94.47482880001189,None,94.47482880001189,None,94.47482880001189,None,94.47482880001189,None,94.47482880001189,None,94.47482880001189,None,94.47482880001189,None,99.43901630000619,None,,,,,2021_Mar_19_1334,rl,2020.2.10,59.89487252111673,
cued.csv,90,10,left,-0.4,0.4,images/blue_box.png,10,Reward5.png,Reward1.png,Reward1.png,0.04,0.1,0.1,auditory_stim/coin5.wav,auditory_stim/coin1.wav,auditory_stim/coin1.wav,998,1.0,0,0,0,0,0,13,13,13,,,,,,,,,,,,,,,,,,,,,,,0,100.55624070001068,None,100.55624070001068,None,100.55624070001068,None,"[-0.4111111111111111, -0.4111111111111111, -0.4111111111111111, -0.4111111111111111, -0.4111111111111111, -0.4111111111111111, -0.4111111111111111, -0.4111111111111111, -0.4111111111111111, -0.4111111111111111, -0.4111111111111111, -0.4111111111111111, -0.4111111111111111, -0.4111111111111111, -0.4111111111111111, -0.4111111111111111, -0.4111111111111111, -0.4111111111111111, -0.4111111111111111, -0.4111111111111111, -0.4111111111111111, -0.4111111111111111, -0.4111111111111111, -0.4111111111111111, -0.4111111111111111]","[-0.058333333333333334, -0.058333333333333334, -0.058333333333333334, -0.058333333333333334, -0.058333333333333334, -0.058333333333333334, -0.058333333333333334, -0.058333333333333334, -0.058333333333333334, -0.058333333333333334, -0.058333333333333334, -0.058333333333333334, -0.058333333333333334, -0.058333333333333334, -0.058333333333333334, -0.058333333333333334, -0.058333333333333334, -0.058333333333333334, -0.058333333333333334, -0.058333333333333334, -0.058333333333333334, -0.058333333333333334, -0.058333333333333334, -0.058333333333333334, -0.058333333333333334]","[0, 0, 0, 0, 0, 0, 0, 0, 0, 0, 0, 0, 0, 0, 0, 0, 0, 0, 0, 0, 0, 0, 0, 0, 1]","[0, 0, 0, 0, 0, 0, 0, 0, 0, 0, 0, 0, 0, 0, 0, 0, 0, 0, 0, 0, 0, 0, 0, 0, 0]","[0, 0, 0, 0, 0, 0, 0, 0, 0, 0, 0, 0, 0, 0, 0, 0, 0, 0, 0, 0, 0, 0, 0, 0, 0]","[0.0003150000120513141, 0.014178900004480965, 0.030566200002795085, 0.04692000000795815, 0.06349820000468753, 0.08030590000271332, 0.09689690000959672, 0.11354640001081862, 0.13017170000239275, 0.14702780000516213, 0.1639556000009179, 0.1800604000018211, 0.19778349999978673, 0.2140951000037603, 0.22978630001307465, 0.2469079000002239, 0.2631985000043642, 0.28034750001097564, 0.2971274000010453, 0.3135292000079062, 0.3305102000012994, 0.3470683000050485, 0.3638585000007879, 0.38055030000396073, 0.39991660001396667]",['green'],0.013460920003126375,None,100.55624070001068,None,100.55624070001068,None,100.55624070001068,None,100.55624070001068,None,100.55624070001068,None,1.005096049993881,None,102.00581550000061,None,102.00581550000061,None,101.01900800000294,None,101.01900800000294,None,101.01900800000294,None,101.01900800000294,None,101.01900800000294,None,101.01900800000294,None,101.01900800000294,None,101.01900800000294,None,105.97225800000888,None,,,,,2021_Mar_19_1334,rl,2020.2.10,59.89487252111673,
cued.csv,44,56,left,-0.4,0.4,images/green_box.png,44,Reward3.png,Reward3.png,Reward3.png,0.05,0.3,0.3,auditory_stim/coin3.wav,auditory_stim/coin3.wav,auditory_stim/coin3.wav,1153,1.2,0,0,0,0,0,14,14,14,,,,,,,,,,,,,,,,,,,,,,,1,106.99216049999814,None,106.99216049999814,None,106.99216049999814,None,"[-0.4111111111111111, -0.4111111111111111, -0.4111111111111111, -0.4111111111111111, -0.4111111111111111, -0.4111111111111111, -0.4111111111111111, -0.4111111111111111, -0.4111111111111111, -0.4111111111111111, -0.4111111111111111, -0.4111111111111111, -0.4111111111111111, -0.4111111111111111, -0.4111111111111111, -0.4111111111111111, -0.4111111111111111, -0.4111111111111111, -0.4111111111111111, -0.4111111111111111, -0.4111111111111111, -0.4111111111111111, -0.4111111111111111]","[-0.058333333333333334, -0.058333333333333334, -0.058333333333333334, -0.058333333333333334, -0.058333333333333334, -0.058333333333333334, -0.058333333333333334, -0.058333333333333334, -0.058333333333333334, -0.058333333333333334, -0.058333333333333334, -0.058333333333333334, -0.058333333333333334, -0.058333333333333334, -0.058333333333333334, -0.058333333333333334, -0.058333333333333334, -0.058333333333333334, -0.058333333333333334, -0.058333333333333334, -0.058333333333333334, -0.058333333333333334, -0.058333333333333334]","[0, 0, 0, 0, 0, 0, 0, 0, 0, 0, 0, 0, 0, 0, 0, 0, 0, 0, 0, 0, 0, 0, 1]","[0, 0, 0, 0, 0, 0, 0, 0, 0, 0, 0, 0, 0, 0, 0, 0, 0, 0, 0, 0, 0, 0, 0]","[0, 0, 0, 0, 0, 0, 0, 0, 0, 0, 0, 0, 0, 0, 0, 0, 0, 0, 0, 0, 0, 0, 0]","[0.00033340000663883984, 0.015502499998547137, 0.028732000006129965, 0.045632699999259785, 0.06228420000115875, 0.07890619999670889, 0.09527550000348128, 0.11254810000536963, 0.12905489999684505, 0.14613140000437852, 0.1621917000011308, 0.17891850000887644, 0.19565249999868684, 0.21229690000473056, 0.22890070000721607, 0.24566600000252947, 0.26274710000143386, 0.27895880000141915, 0.29560870000568684, 0.31275820000155363, 0.3294004000053974, 0.3455363000102807, 0.36531530000502244]",['green'],0.012147820001700893,None,106.99216049999814,None,106.99216049999814,None,106.99216049999814,None,106.99216049999814,None,106.99216049999814,None,1.0105711600044742,None,108.42260940000415,None,108.42260940000415,None,107.43358900000749,None,107.43358900000749,None,107.43358900000749,None,107.43358900000749,None,107.43358900000749,None,107.43358900000749,None,107.43358900000749,None,107.43358900000749,None,112.3723447000084,None,,,,,2021_Mar_19_1334,rl,2020.2.10,59.89487252111673,
cued.csv,30,70,left,-0.4,0.4,images/blue_box.png,70,Reward2.png,Reward4.png,Reward4.png,0.1,0.4,0.4,auditory_stim/coin2.wav,auditory_stim/coin4.wav,auditory_stim/coin4.wav,1229,1.2,0,0,0,0,0,15,15,15,,,,,,,,,,,,,,,,,,,,,,,0,113.59122030000435,None,113.59122030000435,None,113.59122030000435,None,"[-0.4111111111111111, -0.4111111111111111, -0.4111111111111111, -0.4111111111111111, -0.4111111111111111, -0.4111111111111111, -0.4111111111111111, -0.4111111111111111, -0.4111111111111111, -0.4111111111111111, -0.4111111111111111, -0.4111111111111111, -0.4111111111111111, -0.4111111111111111, -0.4111111111111111, -0.4111111111111111, -0.4111111111111111, -0.4111111111111111, -0.4111111111111111, -0.4111111111111111, -0.4111111111111111, -0.4111111111111111, -0.4111111111111111, -0.4111111111111111, -0.4111111111111111]","[-0.058333333333333334, -0.058333333333333334, -0.058333333333333334, -0.058333333333333334, -0.058333333333333334, -0.058333333333333334, -0.058333333333333334, -0.058333333333333334, -0.058333333333333334, -0.058333333333333334, -0.058333333333333334, -0.058333333333333334, -0.058333333333333334, -0.058333333333333334, -0.058333333333333334, -0.058333333333333334, -0.058333333333333334, -0.058333333333333334, -0.058333333333333334, -0.058333333333333334, -0.058333333333333334, -0.058333333333333334, -0.058333333333333334, -0.058333333333333334, -0.058333333333333334]","[0, 0, 0, 0, 0, 0, 0, 0, 0, 0, 0, 0, 0, 0, 0, 0, 0, 0, 0, 0, 0, 0, 0, 0, 1]","[0, 0, 0, 0, 0, 0, 0, 0, 0, 0, 0, 0, 0, 0, 0, 0, 0, 0, 0, 0, 0, 0, 0, 0, 0]","[0, 0, 0, 0, 0, 0, 0, 0, 0, 0, 0, 0, 0, 0, 0, 0, 0, 0, 0, 0, 0, 0, 0, 0, 0]","[0.0002801999944495037, 0.01548799999000039, 0.02976699999999255, 0.046598100001574494, 0.06347059999825433, 0.07991570000012871, 0.09662959999695886, 0.11320769999292679, 0.13013309999951161, 0.14649009999993723, 0.1636195999890333, 0.17943669999658596, 0.19664739999279846, 0.21299299999373034, 0.23071439999330323, 0.2466293999896152, 0.26299039999139495, 0.27956349999294616, 0.29621359999873675, 0.3131470999942394, 0.3298757000011392, 0.34604509999917354, 0.3633197999879485, 0.3795983000018168, 0.39969469999778084]",['green'],0.013787420000880957,None,113.59122030000435,None,113.59122030000435,None,113.59122030000435,None,113.59122030000435,None,113.59122030000435,None,1.002434149995679,None,115.03896750000422,None,115.03896750000422,None,114.05368599999929,None,114.05368599999929,None,114.05368599999929,None,114.05368599999929,None,114.05368599999929,None,114.05368599999929,None,114.05368599999929,None,114.05368599999929,None,119.00567800000135,None,,,,,2021_Mar_19_1334,rl,2020.2.10,59.89487252111673,
cued.csv,69,31,left,-0.4,0.4,images/blue_box.png,31,Reward4.png,Reward2.png,Reward2.png,0.045,0.2,0.2,auditory_stim/coin4.wav,auditory_stim/coin2.wav,auditory_stim/coin2.wav,1191,1.2,0,0,0,0,0,16,16,16,,,,,,,,,,,,,,,,,,,,,,,1,120.22402530000545,None,120.22402530000545,None,120.22402530000545,None,"[-0.4111111111111111, -0.4111111111111111, -0.36944444444444446, -0.3263888888888889, -0.3013888888888889, -0.22916666666666666, -0.18472222222222223, -0.1375, -0.09305555555555556, -0.043055555555555555, 0.006944444444444444, 0.05416666666666667, 0.10138888888888889, 0.17222222222222222, 0.19305555555555556, 0.24166666666666667, 0.2625, 0.26944444444444443, 0.28194444444444444, 0.2861111111111111, 0.28888888888888886, 0.2916666666666667, 0.29444444444444445, 0.2972222222222222, 0.3, 0.3013888888888889, 0.3013888888888889, 0.30277777777777776, 0.30694444444444446, 0.30694444444444446, 0.3138888888888889, 0.31527777777777777, 0.31805555555555554, 0.31805555555555554, 0.3194444444444444]","[-0.058333333333333334, -0.058333333333333334, -0.059722222222222225, -0.06805555555555555, -0.07222222222222222, -0.07916666666666666, -0.08194444444444444, -0.08333333333333333, -0.08333333333333333, -0.08333333333333333, -0.07916666666666666, -0.07222222222222222, -0.06666666666666667, -0.05138888888888889, -0.044444444444444446, -0.03194444444444444, -0.02638888888888889, -0.022222222222222223, -0.016666666666666666, -0.013888888888888888, -0.013888888888888888, -0.0125, -0.011111111111111112, -0.009722222222222222, -0.008333333333333333, -0.008333333333333333, -0.008333333333333333, -0.008333333333333333, -0.008333333333333333, -0.008333333333333333, -0.008333333333333333, -0.008333333333333333, -0.008333333333333333, -0.008333333333333333, -0.008333333333333333]","[0, 0, 0, 0, 0, 0, 0, 0, 0, 0, 0, 0, 0, 0, 0, 0, 0, 0, 0, 0, 0, 0, 0, 0, 0, 0, 0, 0, 0, 0, 0, 0, 0, 0, 1]","[0, 0, 0, 0, 0, 0, 0, 0, 0, 0, 0, 0, 0, 0, 0, 0, 0, 0, 0, 0, 0, 0, 0, 0, 0, 0, 0, 0, 0, 0, 0, 0, 0, 0, 0]","[0, 0, 0, 0, 0, 0, 0, 0, 0, 0, 0, 0, 0, 0, 0, 0, 0, 0, 0, 0, 0, 0, 0, 0, 0, 0, 0, 0, 0, 0, 0, 0, 0, 0, 0]","[0.0002896999940276146, 0.014085000002523884, 0.03440540000156034, 0.048819399991771206, 0.06231189999380149, 0.08161500000278465, 0.0977366000006441, 0.11449569999240339, 0.13072210000245832, 0.14664120000088587, 0.16357379998953547, 0.18012129999988247, 0.1970046999922488, 0.2172188999975333, 0.22992689999227878, 0.2479929999972228, 0.26479529999778606, 0.2788031999953091, 0.29713839999749325, 0.3135906999959843, 0.32886119998875074, 0.34557829999539535, 0.36324489999969956, 0.3802953999984311, 0.3971160999935819, 0.413557399995625, 0.42881159999524243, 0.44676379999145865, 0.46495739999227226, 0.47997259999101516, 0.49714819999644533, 0.5122024000011152, 0.5289846999949077, 0.5457042999914847, 0.5653334999951767]",['blue'],0.012256319998414256,None,120.22402530000545,None,120.22402530000545,None,120.22402530000545,None,120.22402530000545,None,120.22402530000545,None,1.0079628499952378,None,121.85584000000381,None,121.85584000000381,None,120.86086020000221,None,120.86086020000221,None,120.86086020000221,None,120.86086020000221,None,120.86086020000221,None,120.86086020000221,None,120.86086020000221,None,120.86086020000221,None,125.80558759999985,None,,,,,2021_Mar_19_1334,rl,2020.2.10,59.89487252111673,
,,,,,,,,,,,,,,,,,,,,,,,,,,,,,,,,,,,,,,,,,,,,,,,,,0,127.02267760000541,None,127.02267760000541,None,127.02267760000541,None,"[-0.2875, -0.2875, -0.2875, -0.2875, -0.2875, -0.2875, -0.2875, -0.2875, -0.2875, -0.2875, -0.2875, -0.2875, -0.2875, -0.2875, -0.2875, -0.2875, -0.2875, -0.2875, -0.2875, -0.2875]","[-0.015277777777777777, -0.015277777777777777, -0.015277777777777777, -0.015277777777777777, -0.015277777777777777, -0.015277777777777777, -0.015277777777777777, -0.015277777777777777, -0.015277777777777777, -0.015277777777777777, -0.015277777777777777, -0.015277777777777777, -0.015277777777777777, -0.015277777777777777, -0.015277777777777777, -0.015277777777777777, -0.015277777777777777, -0.015277777777777777, -0.015277777777777777, -0.015277777777777777]","[0, 0, 0, 0, 0, 0, 0, 0, 0, 0, 0, 0, 0, 0, 0, 0, 0, 0, 0, 1]","[0, 0, 0, 0, 0, 0, 0, 0, 0, 0, 0, 0, 0, 0, 0, 0, 0, 0, 0, 0]","[0, 0, 0, 0, 0, 0, 0, 0, 0, 0, 0, 0, 0, 0, 0, 0, 0, 0, 0, 0]","[0.00028199999360367656, 0.013844300003256649, 0.03036489999794867, 0.04734639999514911, 0.06338179999147542, 0.08010979999380652, 0.09674290000111796, 0.11335839999082964, 0.13008580000314396, 0.14708229999814648, 0.16380049999861512, 0.1797589999914635, 0.19703840000147466, 0.21372719999635592, 0.23125240000081249, 0.24669729999732226, 0.263017299992498, 0.2798934000020381, 0.29644949999055825, 0.3187090999999782]",['green'],0.013339919998543337,None,127.02267760000541,None,127.02267760000541,None,127.02267760000541,None,127.02267760000541,None,127.02267760000541,None,,,,,,,,,,,,,,,,,,,,,,,,,,,,,,,,,
